,subj_idx,response,split_by,rt,trial,feedback,samp
0,0,1.0,0,3.478440284729004,1,1.0,1
1,0,1.0,0,5.334336280822754,2,1.0,1
2,0,1.0,0,5.045356750488281,3,1.0,1
3,0,1.0,0,5.815301418304443,4,1.0,1
4,0,1.0,0,2.8504109382629395,5,1.0,1
5,0,0.0,0,2.4374091625213623,6,0.0,1
6,0,1.0,0,2.9324145317077637,7,0.0,1
7,0,0.0,0,4.460399627685547,8,0.0,1
8,0,1.0,0,3.0504202842712402,9,0.0,1
9,0,1.0,0,3.875441789627075,10,0.0,1
10,0,1.0,0,3.1124229431152344,11,1.0,1
11,0,1.0,0,3.0864219665527344,12,1.0,1
12,0,1.0,0,2.991417407989502,13,1.0,1
13,0,1.0,0,2.9174139499664307,14,1.0,1
14,0,1.0,0,3.454439163208008,15,1.0,1
15,0,1.0,0,3.926438093185425,16,0.0,1
16,0,1.0,0,2.552407741546631,17,0.0,1
17,0,1.0,0,5.622315406799316,18,0.0,1
18,0,0.0,0,2.07141375541687,19,0.0,1
19,0,0.0,0,3.920438528060913,20,0.0,1
20,0,0.0,0,2.8354101181030273,21,1.0,1
21,0,0.0,0,3.1994271278381348,22,0.0,1
22,0,1.0,0,2.980416774749756,23,1.0,1
23,0,1.0,0,4.453399658203125,24,1.0,1
24,0,1.0,0,2.2474117279052734,25,0.0,1
25,0,0.0,0,4.326409339904785,26,0.0,1
26,0,1.0,0,4.375405311584473,27,1.0,1
27,0,1.0,0,4.158421516418457,28,1.0,1
28,0,1.0,0,2.947415351867676,29,1.0,1
29,0,1.0,0,2.4844086170196533,30,1.0,1
30,0,1.0,0,3.6674489974975586,31,1.0,1
31,0,1.0,0,4.174420356750488,32,0.0,1
32,0,1.0,0,4.296411514282227,33,1.0,1
33,0,1.0,0,2.995417594909668,34,1.0,1
34,0,1.0,0,2.736405372619629,35,1.0,1
35,0,1.0,0,2.1114132404327393,36,0.0,1
36,0,1.0,0,4.742379188537598,37,1.0,1
37,0,1.0,0,2.742405891418457,38,1.0,1
38,0,1.0,0,2.4794087409973145,39,1.0,1
39,0,1.0,0,2.99041748046875,40,1.0,1
40,0,1.0,0,2.999417781829834,41,1.0,1
41,0,1.0,0,3.791447877883911,42,1.0,1
42,0,1.0,0,3.498441219329834,43,1.0,1
43,0,1.0,0,2.5684075355529785,44,1.0,1
44,0,1.0,0,2.5194082260131836,45,1.0,1
45,0,1.0,0,3.730452060699463,46,1.0,1
46,0,1.0,0,3.302432060241699,47,1.0,1
47,0,1.0,0,2.949415445327759,48,1.0,1
48,0,1.0,0,2.681406021118164,49,1.0,1
49,0,1.0,0,3.4564390182495117,50,1.0,1
50,0,1.0,0,2.4814085960388184,51,1.0,1
51,0,1.0,0,2.3354105949401855,52,1.0,1
52,0,1.0,0,4.516395568847656,53,1.0,1
53,0,1.0,0,2.552407741546631,54,1.0,1
54,0,1.0,0,3.290431499481201,55,1.0,1
55,0,1.0,0,3.224428176879883,56,1.0,1
56,0,1.0,0,5.665311813354492,57,1.0,1
57,0,1.0,0,2.684406042098999,58,1.0,1
58,0,1.0,0,3.561444044113159,59,0.0,1
59,0,1.0,0,4.090426445007324,60,1.0,1
60,0,1.0,0,2.678406000137329,61,1.0,1
61,0,1.0,0,2.4354090690612793,62,1.0,1
62,0,1.0,0,2.1044135093688965,63,0.0,1
63,0,1.0,0,5.846299171447754,64,1.0,1
64,0,0.0,0,2.1024134159088135,65,0.0,1
65,0,1.0,0,2.743405818939209,66,1.0,1
66,0,1.0,0,2.495408535003662,67,1.0,1
67,0,1.0,0,2.5664074420928955,68,1.0,1
68,0,1.0,0,2.8374102115631104,69,1.0,1
69,0,1.0,0,2.5114083290100098,70,1.0,1
70,0,1.0,0,3.1884264945983887,71,0.0,1
71,0,1.0,0,2.978416919708252,72,1.0,1
72,0,1.0,0,3.261430025100708,73,1.0,1
73,0,1.0,0,3.0924220085144043,74,1.0,1
74,0,1.0,0,3.4394383430480957,75,1.0,1
75,0,1.0,0,3.020418643951416,76,0.0,1
76,0,1.0,0,2.759406566619873,77,1.0,1
77,0,1.0,0,3.471439838409424,78,1.0,1
78,0,1.0,0,3.6084461212158203,79,0.0,1
79,0,1.0,0,3.227428436279297,80,1.0,1
80,0,1.0,0,2.3874096870422363,81,1.0,1
81,0,1.0,0,2.599407196044922,82,1.0,1
82,0,1.0,0,4.1014251708984375,83,1.0,1
83,0,1.0,0,3.0974223613739014,84,1.0,1
84,0,1.0,0,2.9324145317077637,85,1.0,1
85,0,1.0,0,3.732451915740967,86,1.0,1
86,0,1.0,0,2.8624114990234375,87,0.0,1
87,0,1.0,0,5.154349327087402,88,1.0,1
88,0,1.0,0,2.79740834236145,89,1.0,1
89,0,1.0,0,3.6304473876953125,90,1.0,1
90,0,1.0,0,2.974416732788086,91,1.0,1
91,0,1.0,0,3.3434338569641113,92,1.0,1
92,0,1.0,0,2.756406307220459,93,1.0,1
93,0,1.0,0,2.99641752243042,94,1.0,1
94,0,1.0,0,3.2124276161193848,95,0.0,1
95,0,0.0,0,4.00643253326416,96,0.0,1
96,0,0.0,0,3.8294451236724854,97,0.0,1
97,0,1.0,0,5.12235164642334,98,1.0,1
98,0,0.0,0,2.2374117374420166,99,0.0,1
99,0,1.0,0,2.787407875061035,100,1.0,1
100,0,1.0,0,3.273430585861206,101,1.0,1
101,0,1.0,0,3.8284451961517334,102,1.0,1
102,0,1.0,0,2.311410903930664,103,1.0,1
103,0,1.0,0,3.534442901611328,104,1.0,1
104,0,1.0,0,2.4774086475372314,105,1.0,1
105,0,1.0,0,2.9214141368865967,106,0.0,1
106,0,1.0,0,2.209412097930908,107,1.0,1
107,0,1.0,0,2.3854098320007324,108,0.0,1
108,0,0.0,0,2.7054057121276855,109,0.0,1
109,0,1.0,0,4.964363098144531,110,1.0,1
110,0,1.0,0,3.480440139770508,111,1.0,1
111,0,1.0,0,3.9974329471588135,112,1.0,1
112,0,1.0,0,2.457408905029297,113,1.0,1
113,0,1.0,0,3.1854264736175537,114,1.0,1
114,0,1.0,0,4.623387336730957,115,0.0,1
115,0,0.0,0,4.330409049987793,116,1.0,1
116,0,1.0,0,4.282412528991699,117,1.0,1
117,0,1.0,0,2.6114068031311035,118,0.0,1
118,0,0.0,0,3.7574503421783447,119,0.0,1
119,0,1.0,0,4.530394554138184,120,1.0,1
120,0,1.0,0,2.2934110164642334,121,0.0,1
121,0,1.0,0,5.410330772399902,122,1.0,1
122,0,1.0,0,3.5884451866149902,123,0.0,1
123,0,1.0,0,4.765377044677734,124,1.0,1
124,0,1.0,0,5.259341239929199,125,1.0,1
125,0,1.0,0,3.0714211463928223,126,1.0,1
126,0,1.0,0,5.75730562210083,127,1.0,1
127,0,1.0,0,2.633406639099121,128,1.0,1
128,0,1.0,0,3.748450994491577,129,1.0,1
129,0,1.0,0,2.8214094638824463,130,0.0,1
130,0,0.0,0,3.519442081451416,131,0.0,1
131,0,0.0,0,3.1784262657165527,132,0.0,1
132,0,1.0,0,4.622387886047363,133,1.0,1
133,0,1.0,0,2.9234142303466797,134,0.0,1
134,0,1.0,0,5.625314712524414,135,1.0,1
135,0,1.0,0,4.090426445007324,136,0.0,1
136,0,0.0,0,3.512441635131836,137,0.0,1
137,0,1.0,0,4.594389915466309,138,1.0,1
138,0,1.0,0,4.208417892456055,139,1.0,1
139,0,1.0,0,2.454408884048462,140,1.0,1
140,0,1.0,0,3.3514342308044434,141,1.0,1
141,0,1.0,0,2.494408369064331,142,1.0,1
142,0,1.0,0,3.509441614151001,143,1.0,1
143,0,1.0,0,2.5724074840545654,144,1.0,1
144,0,1.0,0,2.96341609954834,145,1.0,1
145,0,1.0,0,3.4024367332458496,146,1.0,1
146,0,1.0,0,3.0814216136932373,147,1.0,1
147,0,1.0,0,2.72540545463562,148,1.0,1
148,0,1.0,0,3.6944503784179688,149,1.0,1
149,0,1.0,0,2.632406711578369,150,1.0,1
150,0,1.0,0,2.360410213470459,151,1.0,1
151,0,1.0,0,2.2554116249084473,152,1.0,1
152,0,1.0,0,2.744405746459961,153,1.0,1
153,0,1.0,0,2.8714118003845215,154,1.0,1
154,0,1.0,0,2.761406660079956,155,1.0,1
155,0,1.0,0,2.550407648086548,156,1.0,1
156,0,1.0,0,2.3754100799560547,157,1.0,1
157,0,1.0,0,3.3104324340820312,158,1.0,1
158,0,1.0,0,2.8484106063842773,159,1.0,1
159,0,1.0,0,2.4734086990356445,160,1.0,1
160,0,1.0,0,2.585407257080078,161,1.0,1
161,0,1.0,0,2.5924072265625,162,1.0,1
162,0,1.0,0,2.496408462524414,163,1.0,1
163,0,1.0,0,2.6164069175720215,164,1.0,1
164,0,1.0,0,3.1234235763549805,165,1.0,1
165,0,1.0,0,2.772407054901123,166,1.0,1
166,0,1.0,0,2.8834123611450195,167,1.0,1
167,0,1.0,0,2.1004135608673096,168,1.0,1
168,0,1.0,0,3.3594346046447754,169,1.0,1
169,0,1.0,0,2.9354147911071777,170,0.0,1
170,0,1.0,0,3.1004223823547363,171,0.0,1
171,0,0.0,0,4.017431259155273,172,0.0,1
172,0,1.0,0,3.960435628890991,173,1.0,1
173,0,1.0,0,4.689382553100586,174,1.0,1
174,0,1.0,0,2.8594112396240234,175,1.0,1
175,0,1.0,0,2.3904097080230713,176,0.0,1
176,0,1.0,0,3.521442174911499,177,1.0,1
177,0,1.0,0,4.044429779052734,178,0.0,1
178,0,0.0,0,2.998417854309082,179,0.0,1
179,0,1.0,0,2.967416286468506,180,1.0,1
180,0,1.0,0,3.1324238777160645,181,0.0,1
181,0,1.0,0,2.415409564971924,182,1.0,1
182,0,1.0,0,2.597407102584839,183,0.0,1
183,0,1.0,0,3.489440679550171,184,1.0,1
184,0,0.0,0,2.631406784057617,185,0.0,1
185,0,1.0,0,2.8294098377227783,186,1.0,1
186,0,1.0,0,3.4204373359680176,187,0.0,1
187,0,1.0,0,4.651385307312012,188,1.0,1
188,0,1.0,0,2.169412612915039,189,1.0,1
189,0,1.0,0,2.2834110260009766,190,1.0,1
190,0,1.0,0,2.6674060821533203,191,0.0,1
191,0,0.0,0,2.3754100799560547,192,0.0,1
192,0,1.0,0,3.541443109512329,193,1.0,1
193,0,1.0,0,3.6804494857788086,194,1.0,1
194,0,1.0,0,2.98341703414917,195,1.0,1
195,0,1.0,0,2.259411334991455,196,0.0,1
196,0,1.0,0,3.4474387168884277,197,0.0,1
197,0,0.0,0,5.060356140136719,198,0.0,1
198,0,0.0,0,3.6044459342956543,199,0.0,1
199,0,0.0,0,3.813446283340454,200,0.0,1
200,0,1.0,0,2.5144081115722656,201,1.0,1
201,0,1.0,0,2.5644075870513916,202,1.0,1
202,0,1.0,0,2.957415819168091,203,1.0,1
203,0,1.0,0,2.763406753540039,204,1.0,1
204,0,1.0,0,2.8864126205444336,205,0.0,1
205,0,1.0,0,4.862370491027832,206,1.0,1
206,0,1.0,0,2.39540958404541,207,1.0,1
207,0,1.0,0,4.181419372558594,208,1.0,1
208,0,1.0,0,2.1994121074676514,209,0.0,1
209,0,1.0,0,4.158421516418457,210,1.0,1
210,0,1.0,0,3.771449327468872,211,1.0,1
211,0,1.0,0,3.1274237632751465,212,1.0,1
212,0,1.0,0,2.6134068965911865,213,0.0,1
213,0,1.0,0,2.749406099319458,214,1.0,1
214,0,1.0,0,3.4264378547668457,215,1.0,1
215,0,1.0,0,2.356410264968872,216,1.0,1
216,0,1.0,0,2.5114083290100098,217,1.0,1
217,0,1.0,0,2.727405548095703,218,1.0,1
218,0,1.0,0,3.3224329948425293,219,1.0,1
219,0,0.0,0,3.046420097351074,220,0.0,1
220,0,1.0,0,2.579407215118408,221,1.0,1
221,0,1.0,0,2.2014122009277344,222,1.0,1
222,0,1.0,0,2.6964058876037598,223,0.0,1
223,0,1.0,0,3.922438383102417,224,0.0,1
224,0,0.0,0,2.642406463623047,225,1.0,1
225,0,0.0,0,3.8654425144195557,226,0.0,1
226,0,0.0,0,3.9384372234344482,227,0.0,1
227,0,1.0,0,3.6464481353759766,228,1.0,1
228,0,1.0,0,2.739405632019043,229,0.0,1
229,0,0.0,0,3.235428810119629,230,0.0,1
230,0,0.0,0,5.427329063415527,231,0.0,1
231,0,1.0,0,2.743405818939209,232,1.0,1
232,0,1.0,0,4.800374984741211,233,1.0,1
233,0,1.0,0,3.1394243240356445,234,1.0,1
234,0,1.0,0,2.772407054901123,235,0.0,1
235,0,1.0,0,6.371261119842529,236,1.0,1
236,0,1.0,0,5.57731819152832,237,1.0,1
237,0,1.0,0,2.801408529281616,238,1.0,1
238,0,1.0,0,3.545443296432495,239,0.0,1
239,0,1.0,0,2.2064120769500732,240,0.0,1
240,0,1.0,0,3.714451313018799,241,1.0,1
241,0,1.0,0,3.6844496726989746,242,1.0,1
242,0,1.0,0,2.8314099311828613,243,1.0,1
243,0,1.0,0,3.6484479904174805,244,1.0,1
244,0,1.0,0,3.5734446048736572,245,1.0,1
245,0,1.0,0,2.5744073390960693,246,0.0,1
246,0,0.0,0,3.3844356536865234,247,0.0,1
247,0,1.0,0,3.7644498348236084,248,1.0,1
248,0,1.0,0,2.726405382156372,249,1.0,1
249,0,1.0,0,2.8414103984832764,250,1.0,1
250,0,1.0,0,2.771407127380371,251,1.0,1
251,0,1.0,0,2.734405517578125,252,0.0,1
252,0,1.0,0,4.00643253326416,253,1.0,1
253,0,1.0,0,2.4744086265563965,254,0.0,1
254,0,1.0,0,3.4114370346069336,255,1.0,1
255,0,1.0,0,3.1134231090545654,256,1.0,1
256,0,1.0,0,2.353410243988037,257,1.0,1
257,0,1.0,0,2.3834099769592285,258,0.0,1
258,0,1.0,0,3.0634207725524902,259,0.0,1
259,0,0.0,0,6.038285255432129,260,1.0,1
260,0,1.0,0,3.3964362144470215,261,1.0,1
261,0,0.0,0,3.8254454135894775,262,0.0,1
262,0,1.0,0,3.925438165664673,263,1.0,1
263,0,1.0,0,2.8954129219055176,264,1.0,1
264,0,1.0,0,3.283431053161621,265,1.0,1
265,0,1.0,0,2.8594112396240234,266,1.0,1
266,0,1.0,0,2.5124082565307617,267,1.0,1
267,0,1.0,0,3.4154372215270996,268,1.0,1
268,0,1.0,0,2.8364100456237793,269,1.0,1
269,0,0.0,0,3.497441053390503,270,0.0,1
270,0,1.0,0,2.398409605026245,271,1.0,1
271,0,1.0,0,3.064420700073242,272,1.0,1
272,0,1.0,0,3.6194467544555664,273,1.0,1
273,0,1.0,0,4.386404991149902,274,1.0,1
274,0,1.0,0,2.0034146308898926,275,0.0,1
275,0,0.0,0,3.000417709350586,276,0.0,1
276,0,1.0,0,3.8104465007781982,277,1.0,1
277,0,1.0,0,3.1754260063171387,278,1.0,1
278,0,1.0,0,2.727405548095703,279,1.0,1
279,0,1.0,0,2.2454116344451904,280,1.0,1
280,0,1.0,0,3.6474480628967285,281,1.0,1
281,0,1.0,0,2.549407720565796,282,1.0,1
282,0,1.0,0,3.5624442100524902,283,1.0,1
283,0,1.0,0,2.4294092655181885,284,0.0,1
284,0,1.0,0,2.220412015914917,285,1.0,1
285,0,1.0,0,4.402403831481934,286,1.0,1
286,0,1.0,0,2.7084057331085205,287,1.0,1
287,0,1.0,0,3.1234235763549805,288,1.0,1
288,0,1.0,0,2.2954111099243164,289,1.0,1
289,0,1.0,0,2.4204094409942627,290,1.0,1
290,0,1.0,0,4.896368026733398,291,1.0,1
291,0,1.0,0,2.99041748046875,292,0.0,1
292,0,1.0,0,3.1404242515563965,293,1.0,1
293,0,1.0,0,3.033419370651245,294,0.0,1
294,0,1.0,0,3.925438165664673,295,0.0,1
295,0,0.0,0,4.838372230529785,296,0.0,1
296,0,0.0,0,2.8024086952209473,297,0.0,1
297,0,0.0,0,5.797302722930908,298,0.0,1
298,0,0.0,0,2.273411273956299,299,0.0,1
299,0,1.0,0,4.771376609802246,300,1.0,1
300,0,1.0,0,3.925438165664673,301,1.0,1
301,0,1.0,0,2.8374102115631104,302,1.0,1
302,0,1.0,0,2.1914122104644775,303,1.0,1
303,0,1.0,0,2.5724074840545654,304,1.0,1
304,0,1.0,0,2.8724117279052734,305,1.0,1
305,0,1.0,0,3.1324238777160645,306,1.0,1
306,0,1.0,0,2.5584075450897217,307,1.0,1
307,0,1.0,0,2.3014109134674072,308,1.0,1
308,0,1.0,0,3.038419723510742,309,1.0,1
309,0,1.0,0,2.582407236099243,310,1.0,1
310,0,1.0,0,3.9314377307891846,311,1.0,1
311,0,1.0,0,2.404409646987915,312,1.0,1
312,0,1.0,0,3.3954362869262695,313,1.0,1
313,0,1.0,0,3.777448892593384,314,1.0,1
314,0,1.0,0,2.808408737182617,315,1.0,1
315,0,1.0,0,2.646406412124634,316,1.0,1
316,0,1.0,0,2.762406826019287,317,1.0,1
317,0,1.0,0,2.3404104709625244,318,1.0,1
318,0,1.0,0,2.3864097595214844,319,1.0,1
319,0,1.0,0,2.5564076900482178,320,1.0,1
320,0,1.0,0,2.170412540435791,321,1.0,1
321,0,1.0,0,2.536407947540283,322,1.0,1
322,0,1.0,0,3.550443649291992,323,1.0,1
323,0,1.0,0,2.4714088439941406,324,1.0,1
324,0,1.0,0,2.646406412124634,325,1.0,1
325,0,1.0,0,3.226428508758545,326,1.0,1
326,0,1.0,0,2.75740647315979,327,1.0,1
327,0,1.0,0,3.047420024871826,328,1.0,1
328,0,1.0,0,2.5354080200195312,329,1.0,1
329,0,1.0,0,4.5323944091796875,330,1.0,1
330,0,1.0,0,2.951415538787842,331,1.0,1
331,0,1.0,0,2.7064056396484375,332,1.0,1
332,0,1.0,0,3.266430377960205,333,1.0,1
333,0,1.0,0,2.754406452178955,334,1.0,1
334,0,1.0,0,2.6204068660736084,335,1.0,1
335,0,1.0,0,2.5614075660705566,336,1.0,1
336,0,1.0,0,2.8734118938446045,337,1.0,1
337,0,1.0,0,2.8984131813049316,338,1.0,1
338,0,1.0,0,2.726405382156372,339,1.0,1
339,0,1.0,0,2.803408622741699,340,1.0,1
340,0,1.0,0,2.6714062690734863,341,1.0,1
341,0,1.0,0,2.599407196044922,342,1.0,1
342,0,1.0,0,2.8074088096618652,343,1.0,1
343,0,1.0,0,7.496179580688477,344,1.0,1
344,0,1.0,0,4.329408645629883,345,1.0,1
345,0,1.0,0,2.6724061965942383,346,1.0,1
346,0,1.0,0,2.503408432006836,347,0.0,1
347,0,0.0,0,3.0904221534729004,348,0.0,1
348,0,1.0,0,2.5134081840515137,349,1.0,1
349,0,0.0,0,4.291411399841309,350,1.0,1
350,0,1.0,0,2.3384103775024414,351,0.0,1
351,0,0.0,0,3.9324376583099365,352,0.0,1
352,0,1.0,0,4.637386322021484,353,1.0,1
353,0,1.0,0,3.749450922012329,354,1.0,1
354,0,1.0,0,4.689382553100586,355,0.0,1
355,0,0.0,0,2.504408359527588,356,0.0,1
356,0,1.0,0,4.664384841918945,357,1.0,1
357,0,0.0,0,2.8254096508026123,358,0.0,1
358,0,1.0,0,3.6664490699768066,359,1.0,1
359,0,1.0,0,2.4884085655212402,360,0.0,1
360,0,1.0,0,2.689405918121338,361,1.0,1
361,0,1.0,0,3.722451686859131,362,1.0,1
362,0,1.0,0,2.306410789489746,363,1.0,1
363,0,1.0,0,2.2984108924865723,364,1.0,1
364,0,1.0,0,2.2524116039276123,365,0.0,1
365,0,1.0,0,3.879441499710083,366,1.0,1
366,0,1.0,0,2.7004058361053467,367,1.0,1
367,0,1.0,0,3.3814356327056885,368,1.0,1
368,0,1.0,0,2.5804073810577393,369,0.0,1
369,0,0.0,0,3.0584206581115723,370,0.0,1
370,0,1.0,0,5.110352516174316,371,0.0,1
371,0,1.0,0,6.055284023284912,372,1.0,1
372,0,1.0,0,2.8594112396240234,373,1.0,1
373,0,1.0,0,2.8754119873046875,374,0.0,1
374,0,1.0,0,2.4234094619750977,375,1.0,1
375,0,1.0,0,3.251429557800293,376,1.0,1
376,0,1.0,0,4.469398498535156,377,1.0,1
377,0,1.0,0,4.277412414550781,378,1.0,1
378,0,1.0,0,2.969416379928589,379,1.0,1
379,0,1.0,0,3.008418083190918,380,1.0,1
380,0,1.0,0,2.733405351638794,381,1.0,1
381,0,1.0,0,2.4344091415405273,382,1.0,1
382,0,1.0,0,3.235428810119629,383,1.0,1
383,0,1.0,0,2.8894126415252686,384,1.0,1
384,0,1.0,0,3.3094322681427,385,1.0,1
385,0,1.0,0,2.170412540435791,386,1.0,1
386,0,1.0,0,2.5184080600738525,387,0.0,1
387,0,1.0,0,3.215427875518799,388,1.0,1
388,0,1.0,0,3.239428997039795,389,1.0,1
389,0,1.0,0,2.9124135971069336,390,1.0,1
390,0,1.0,0,3.3834357261657715,391,1.0,1
391,0,1.0,0,2.6114068031311035,392,1.0,1
392,0,1.0,0,2.39540958404541,393,0.0,1
393,0,1.0,0,4.029430389404297,394,1.0,1
394,0,1.0,0,2.402409553527832,395,0.0,1
395,0,1.0,0,5.28533935546875,396,1.0,1
396,0,1.0,0,2.6674060821533203,397,0.0,1
397,0,1.0,0,4.423401832580566,398,1.0,1
398,0,1.0,0,2.7944083213806152,399,1.0,1
399,0,1.0,0,2.728405475616455,400,0.0,1
400,0,1.0,0,2.985417127609253,401,1.0,1
401,0,1.0,0,3.0974223613739014,402,1.0,1
402,0,1.0,0,4.520395278930664,403,1.0,1
403,0,1.0,0,2.318410634994507,404,1.0,1
404,0,1.0,0,2.441409111022949,405,1.0,1
405,0,1.0,0,2.5154080390930176,406,1.0,1
406,0,1.0,0,2.8444104194641113,407,1.0,1
407,0,1.0,0,3.1534249782562256,408,1.0,1
408,0,1.0,0,2.8704118728637695,409,1.0,1
409,0,1.0,0,2.9234142303466797,410,1.0,1
410,0,1.0,0,2.6164069175720215,411,1.0,1
411,0,1.0,0,3.1504249572753906,412,1.0,1
412,0,1.0,0,2.2844111919403076,413,1.0,1
413,0,1.0,0,2.6094069480895996,414,1.0,1
414,0,1.0,0,2.8344101905822754,415,1.0,1
415,0,1.0,0,2.5774073600769043,416,0.0,1
416,0,1.0,0,4.217416763305664,417,1.0,1
417,0,1.0,0,2.5294079780578613,418,1.0,1
418,0,1.0,0,3.24942946434021,419,1.0,1
419,0,1.0,0,3.3444337844848633,420,1.0,1
420,0,1.0,0,3.518442153930664,421,1.0,1
421,0,1.0,0,3.1374242305755615,422,1.0,1
422,0,1.0,0,1.9884148836135864,423,0.0,1
423,0,1.0,0,3.497441053390503,424,0.0,1
424,0,1.0,0,3.1284236907958984,425,1.0,1
425,0,1.0,0,2.6984057426452637,426,0.0,1
426,0,1.0,0,2.589407205581665,427,1.0,1
427,0,1.0,0,3.6344475746154785,428,1.0,1
428,0,1.0,0,2.6644062995910645,429,1.0,1
429,0,1.0,0,3.238429069519043,430,1.0,1
430,0,1.0,0,2.744405746459961,431,1.0,1
431,0,1.0,0,2.955415725708008,432,1.0,1
432,0,1.0,0,2.6644062995910645,433,0.0,1
433,0,1.0,0,3.6384477615356445,434,1.0,1
434,0,1.0,0,2.8424105644226074,435,1.0,1
435,0,1.0,0,3.796447515487671,436,1.0,1
436,0,1.0,0,3.9744346141815186,437,1.0,1
437,0,1.0,0,2.739405632019043,438,1.0,1
438,0,1.0,0,3.544443130493164,439,1.0,1
439,0,1.0,0,2.980416774749756,440,1.0,1
440,0,1.0,0,2.72540545463562,441,1.0,1
441,0,1.0,0,2.998417854309082,442,1.0,1
442,0,1.0,0,2.8554110527038574,443,1.0,1
443,0,1.0,0,2.8774120807647705,444,1.0,1
444,0,1.0,0,2.9094135761260986,445,1.0,1
445,0,1.0,0,2.218411922454834,446,1.0,1
446,0,1.0,0,3.0754213333129883,447,1.0,1
447,0,1.0,0,2.766407012939453,448,1.0,1
448,0,1.0,0,3.248429298400879,449,1.0,1
449,0,1.0,0,2.9194140434265137,450,1.0,1
450,0,1.0,0,2.5714073181152344,451,1.0,1
451,0,1.0,0,2.695405960083008,452,1.0,1
452,0,1.0,0,2.26841139793396,453,1.0,1
453,0,1.0,0,3.005418062210083,454,0.0,1
454,0,1.0,0,3.9114391803741455,455,0.0,1
455,0,0.0,0,2.443408966064453,456,0.0,1
456,0,0.0,0,6.207273006439209,457,0.0,1
457,0,1.0,0,5.8772969245910645,458,1.0,1
458,0,1.0,0,4.060428619384766,459,1.0,1
459,0,1.0,0,4.0624284744262695,460,1.0,1
460,0,1.0,0,2.8064088821411133,461,1.0,1
461,0,1.0,0,2.4144093990325928,462,0.0,1
462,0,1.0,0,2.4804086685180664,463,1.0,1
463,0,1.0,0,2.97641658782959,464,1.0,1
464,0,1.0,0,2.492408514022827,465,1.0,1
465,0,1.0,0,3.9814341068267822,466,1.0,1
466,0,1.0,0,3.8444440364837646,467,1.0,1
467,0,1.0,0,2.79740834236145,468,1.0,1
468,0,1.0,0,2.5264079570770264,469,1.0,1
469,0,1.0,0,2.954415798187256,470,1.0,1
470,0,1.0,0,2.5144081115722656,471,1.0,1
471,0,1.0,0,3.1114230155944824,472,0.0,1
472,0,1.0,0,3.790447950363159,473,0.0,1
473,0,1.0,0,3.1654255390167236,474,1.0,1
474,0,1.0,0,3.240428924560547,475,1.0,1
475,0,1.0,0,2.4204094409942627,476,1.0,1
476,0,1.0,0,2.307410717010498,477,1.0,1
477,0,1.0,0,3.9274380207061768,478,1.0,1
478,0,1.0,0,2.8714118003845215,479,1.0,1
479,0,1.0,0,2.2944109439849854,480,1.0,1
480,0,1.0,0,3.3704352378845215,481,1.0,1
481,0,1.0,0,2.4644088745117188,482,1.0,1
482,0,1.0,0,2.3294105529785156,483,1.0,1
483,0,1.0,0,2.547407627105713,484,1.0,1
484,0,1.0,0,2.729405403137207,485,1.0,1
485,0,1.0,0,2.3394103050231934,486,1.0,1
486,0,1.0,0,3.6194467544555664,487,1.0,1
487,0,1.0,0,2.6554064750671387,488,0.0,1
488,0,1.0,0,3.501441240310669,489,1.0,1
489,0,1.0,0,3.1154232025146484,490,1.0,1
490,0,1.0,0,4.205417633056641,491,1.0,1
491,0,1.0,0,2.643406391143799,492,1.0,1
492,0,1.0,0,4.413402557373047,493,1.0,1
493,0,1.0,0,2.50540828704834,494,1.0,1
494,0,1.0,0,4.009431838989258,495,1.0,1
495,0,1.0,0,3.3264331817626953,496,0.0,1
496,0,1.0,0,3.3434338569641113,497,1.0,1
497,0,1.0,0,4.326409339904785,498,1.0,1
498,0,1.0,0,2.221411943435669,499,1.0,1
499,0,1.0,0,3.3384337425231934,500,1.0,1
500,0,0.0,1,6.252269744873047,1,0.0,1
501,0,1.0,1,4.657384872436523,2,1.0,1
502,0,0.0,1,2.5724074840545654,3,1.0,1
503,0,1.0,1,4.839371681213379,4,0.0,1
504,0,0.0,1,3.463439464569092,5,1.0,1
505,0,0.0,1,7.185202121734619,6,0.0,1
506,0,1.0,1,5.023358345031738,7,1.0,1
507,0,0.0,1,6.613243579864502,8,0.0,1
508,0,1.0,1,3.1674256324768066,9,1.0,1
509,0,1.0,1,3.3264331817626953,10,0.0,1
510,0,1.0,1,4.292411804199219,11,1.0,1
511,0,1.0,1,3.0834217071533203,12,1.0,1
512,0,1.0,1,3.1764259338378906,13,1.0,1
513,0,1.0,1,4.705381393432617,14,1.0,1
514,0,1.0,1,2.8894126415252686,15,0.0,1
515,0,1.0,1,3.6404476165771484,16,1.0,1
516,0,1.0,1,2.997417688369751,17,1.0,1
517,0,1.0,1,3.9974329471588135,18,1.0,1
518,0,1.0,1,3.752450704574585,19,0.0,1
519,0,1.0,1,3.5924453735351562,20,1.0,1
520,0,1.0,1,3.465439558029175,21,1.0,1
521,0,1.0,1,3.6624488830566406,22,0.0,1
522,0,1.0,1,3.51544189453125,23,1.0,1
523,0,1.0,1,4.674384117126465,24,1.0,1
524,0,1.0,1,3.706450939178467,25,1.0,1
525,0,1.0,1,3.5624442100524902,26,0.0,1
526,0,1.0,1,5.026358604431152,27,1.0,1
527,0,1.0,1,3.6824498176574707,28,1.0,1
528,0,1.0,1,3.214427947998047,29,1.0,1
529,0,1.0,1,2.957415819168091,30,1.0,1
530,0,1.0,1,3.035419464111328,31,1.0,1
531,0,0.0,1,3.1194233894348145,32,0.0,1
532,0,1.0,1,2.946415424346924,33,1.0,1
533,0,1.0,1,4.551392555236816,34,1.0,1
534,0,1.0,1,3.1964268684387207,35,1.0,1
535,0,0.0,1,2.6094069480895996,36,0.0,1
536,0,1.0,1,3.5914454460144043,37,1.0,1
537,0,1.0,1,3.1454246044158936,38,0.0,1
538,0,1.0,1,3.4224376678466797,39,1.0,1
539,0,1.0,1,3.1004223823547363,40,1.0,1
540,0,1.0,1,2.8204092979431152,41,1.0,1
541,0,1.0,1,3.504441261291504,42,1.0,1
542,0,1.0,1,2.500408411026001,43,1.0,1
543,0,1.0,1,3.7094509601593018,44,1.0,1
544,0,1.0,1,3.03641939163208,45,1.0,1
545,0,1.0,1,3.551443576812744,46,1.0,1
546,0,1.0,1,2.299410820007324,47,1.0,1
547,0,1.0,1,2.411409378051758,48,1.0,1
548,0,1.0,1,3.509441614151001,49,1.0,1
549,0,1.0,1,3.6084461212158203,50,0.0,1
550,0,1.0,1,2.8544111251831055,51,1.0,1
551,0,1.0,1,2.753406286239624,52,1.0,1
552,0,1.0,1,2.965416193008423,53,1.0,1
553,0,1.0,1,3.1574251651763916,54,0.0,1
554,0,0.0,1,2.1384129524230957,55,1.0,1
555,0,1.0,1,3.470439910888672,56,1.0,1
556,0,1.0,1,4.661384582519531,57,0.0,1
557,0,0.0,1,2.4704086780548096,58,0.0,1
558,0,1.0,1,7.250197410583496,59,0.0,1
559,0,0.0,1,2.2444117069244385,60,0.0,1
560,0,1.0,1,4.808374404907227,61,1.0,1
561,0,1.0,1,4.535393714904785,62,0.0,1
562,0,0.0,1,5.144350051879883,63,1.0,1
563,0,0.0,1,2.5764074325561523,64,1.0,1
564,0,0.0,1,2.8304100036621094,65,0.0,1
565,0,0.0,1,2.4254093170166016,66,1.0,1
566,0,0.0,1,3.9584357738494873,67,0.0,1
567,0,1.0,1,5.6623125076293945,68,1.0,1
568,0,0.0,1,4.377405166625977,69,1.0,1
569,0,0.0,1,5.806302070617676,70,0.0,1
570,0,1.0,1,4.538393974304199,71,0.0,1
571,0,1.0,1,5.170348167419434,72,1.0,1
572,0,1.0,1,5.229343414306641,73,0.0,1
573,0,0.0,1,2.6234068870544434,74,0.0,1
574,0,1.0,1,3.8924405574798584,75,1.0,1
575,0,1.0,1,3.90343976020813,76,1.0,1
576,0,1.0,1,3.059420585632324,77,1.0,1
577,0,1.0,1,2.490408420562744,78,1.0,1
578,0,1.0,1,2.550407648086548,79,1.0,1
579,0,1.0,1,2.272411346435547,80,1.0,1
580,0,1.0,1,2.585407257080078,81,0.0,1
581,0,1.0,1,3.4204373359680176,82,1.0,1
582,0,0.0,1,5.478325843811035,83,1.0,1
583,0,1.0,1,3.791447877883911,84,1.0,1
584,0,1.0,1,2.9214141368865967,85,1.0,1
585,0,0.0,1,3.960435628890991,86,1.0,1
586,0,0.0,1,3.0834217071533203,87,0.0,1
587,0,1.0,1,3.284430980682373,88,1.0,1
588,0,1.0,1,5.862298011779785,89,1.0,1
589,0,1.0,1,2.3314104080200195,90,1.0,1
590,0,1.0,1,4.845371246337891,91,1.0,1
591,0,1.0,1,2.6154069900512695,92,0.0,1
592,0,1.0,1,3.202427387237549,93,1.0,1
593,0,0.0,1,2.2394118309020996,94,0.0,1
594,0,1.0,1,3.1934268474578857,95,0.0,1
595,0,1.0,1,3.253429651260376,96,1.0,1
596,0,1.0,1,5.1893463134765625,97,1.0,1
597,0,1.0,1,2.5134081840515137,98,1.0,1
598,0,1.0,1,2.3794097900390625,99,1.0,1
599,0,1.0,1,2.7154054641723633,100,1.0,1
600,0,1.0,1,3.9934332370758057,101,1.0,1
601,0,1.0,1,2.5644075870513916,102,1.0,1
602,0,1.0,1,2.1564128398895264,103,1.0,1
603,0,1.0,1,2.398409605026245,104,1.0,1
604,0,1.0,1,2.5564076900482178,105,1.0,1
605,0,1.0,1,4.561391830444336,106,1.0,1
606,0,1.0,1,3.1834263801574707,107,1.0,1
607,0,1.0,1,2.460408926010132,108,1.0,1
608,0,1.0,1,4.652385711669922,109,1.0,1
609,0,1.0,1,3.1234235763549805,110,1.0,1
610,0,1.0,1,3.881441354751587,111,1.0,1
611,0,1.0,1,2.454408884048462,112,1.0,1
612,0,1.0,1,2.686405897140503,113,1.0,1
613,0,1.0,1,4.577390670776367,114,1.0,1
614,0,1.0,1,2.734405517578125,115,0.0,1
615,0,0.0,1,4.72838020324707,116,0.0,1
616,0,1.0,1,4.9803619384765625,117,1.0,1
617,0,1.0,1,3.275430679321289,118,0.0,1
618,0,0.0,1,4.478398323059082,119,0.0,1
619,0,0.0,1,2.6684062480926514,120,0.0,1
620,0,1.0,1,2.8954129219055176,121,1.0,1
621,0,1.0,1,3.748450994491577,122,1.0,1
622,0,0.0,1,2.8094089031219482,123,0.0,1
623,0,1.0,1,2.6174068450927734,124,0.0,1
624,0,1.0,1,3.4444384574890137,125,1.0,1
625,0,1.0,1,3.202427387237549,126,1.0,1
626,0,1.0,1,2.683405876159668,127,0.0,1
627,0,0.0,1,2.4874086380004883,128,0.0,1
628,0,1.0,1,4.235415458679199,129,1.0,1
629,0,1.0,1,3.296431541442871,130,1.0,1
630,0,1.0,1,3.4244375228881836,131,1.0,1
631,0,1.0,1,3.4354381561279297,132,1.0,1
632,0,1.0,1,2.3004109859466553,133,1.0,1
633,0,1.0,1,4.083426475524902,134,1.0,1
634,0,1.0,1,2.36641001701355,135,1.0,1
635,0,1.0,1,2.579407215118408,136,1.0,1
636,0,1.0,1,2.744405746459961,137,1.0,1
637,0,1.0,1,2.6174068450927734,138,1.0,1
638,0,1.0,1,2.683405876159668,139,1.0,1
639,0,1.0,1,2.989417314529419,140,0.0,1
640,0,1.0,1,4.585390090942383,141,1.0,1
641,0,1.0,1,2.689405918121338,142,1.0,1
642,0,1.0,1,2.8704118728637695,143,1.0,1
643,0,1.0,1,3.8214457035064697,144,0.0,1
644,0,1.0,1,6.043284893035889,145,1.0,1
645,0,1.0,1,2.4874086380004883,146,1.0,1
646,0,1.0,1,4.281412124633789,147,1.0,1
647,0,1.0,1,2.977416753768921,148,1.0,1
648,0,1.0,1,2.4754085540771484,149,1.0,1
649,0,1.0,1,3.01041841506958,150,1.0,1
650,0,1.0,1,2.7054057121276855,151,1.0,1
651,0,1.0,1,3.03641939163208,152,1.0,1
652,0,1.0,1,2.8984131813049316,153,1.0,1
653,0,1.0,1,3.235428810119629,154,1.0,1
654,0,1.0,1,2.4354090690612793,155,1.0,1
655,0,1.0,1,2.3744099140167236,156,1.0,1
656,0,1.0,1,2.3294105529785156,157,0.0,1
657,0,1.0,1,4.183419227600098,158,0.0,1
658,0,1.0,1,4.6353864669799805,159,1.0,1
659,0,1.0,1,3.040419578552246,160,1.0,1
660,0,1.0,1,2.6674060821533203,161,1.0,1
661,0,1.0,1,3.1114230155944824,162,0.0,1
662,0,1.0,1,2.178412437438965,163,1.0,1
663,0,1.0,1,3.255429744720459,164,0.0,1
664,0,1.0,1,3.0504202842712402,165,1.0,1
665,0,1.0,1,2.6564064025878906,166,0.0,1
666,0,1.0,1,4.711380958557129,167,1.0,1
667,0,1.0,1,2.5744073390960693,168,1.0,1
668,0,1.0,1,3.286431312561035,169,0.0,1
669,0,1.0,1,2.8514108657836914,170,1.0,1
670,0,1.0,1,3.554443836212158,171,0.0,1
671,0,1.0,1,6.739234447479248,172,0.0,1
672,0,1.0,1,6.094281196594238,173,0.0,1
673,0,1.0,1,3.6664490699768066,174,0.0,1
674,0,1.0,1,3.3954362869262695,175,0.0,1
675,0,1.0,1,3.1334240436553955,176,0.0,1
676,0,1.0,1,5.774304389953613,177,1.0,1
677,0,1.0,1,3.6854498386383057,178,0.0,1
678,0,1.0,1,4.1874189376831055,179,1.0,1
679,0,1.0,1,4.6553850173950195,180,1.0,1
680,0,1.0,1,2.967416286468506,181,0.0,1
681,0,1.0,1,6.839227199554443,182,0.0,1
682,0,0.0,1,3.8294451236724854,183,0.0,1
683,0,0.0,1,2.0634138584136963,184,1.0,1
684,0,0.0,1,2.991417407989502,185,0.0,1
685,0,1.0,1,2.8334100246429443,186,1.0,1
686,0,1.0,1,3.6254470348358154,187,1.0,1
687,0,1.0,1,2.997417688369751,188,1.0,1
688,0,0.0,1,4.060428619384766,189,1.0,1
689,0,1.0,1,2.969416379928589,190,1.0,1
690,0,1.0,1,4.140422821044922,191,1.0,1
691,0,0.0,1,2.073413848876953,192,1.0,1
692,0,1.0,1,5.202345848083496,193,0.0,1
693,0,0.0,1,3.7834484577178955,194,0.0,1
694,0,0.0,1,6.587245464324951,195,1.0,1
695,0,0.0,1,3.3924360275268555,196,0.0,1
696,0,0.0,1,2.502408266067505,197,0.0,1
697,0,1.0,1,2.6664061546325684,198,0.0,1
698,0,1.0,1,4.122424125671387,199,0.0,1
699,0,0.0,1,3.047420024871826,200,1.0,1
700,0,0.0,1,2.1134133338928223,201,1.0,1
701,0,0.0,1,2.9304146766662598,202,1.0,1
702,0,0.0,1,2.0524141788482666,203,0.0,1
703,0,0.0,1,2.2554116249084473,204,0.0,1
704,0,1.0,1,3.227428436279297,205,0.0,1
705,0,0.0,1,3.99043345451355,206,0.0,1
706,0,1.0,1,3.6264472007751465,207,1.0,1
707,0,1.0,1,4.3794050216674805,208,1.0,1
708,0,1.0,1,2.645406484603882,209,0.0,1
709,0,1.0,1,4.009431838989258,210,0.0,1
710,0,0.0,1,2.1354129314422607,211,1.0,1
711,0,0.0,1,2.8304100036621094,212,0.0,1
712,0,0.0,1,2.3924098014831543,213,0.0,1
713,0,0.0,1,4.195418357849121,214,0.0,1
714,0,1.0,1,4.439400672912598,215,0.0,1
715,0,1.0,1,5.581317901611328,216,1.0,1
716,0,1.0,1,4.440401077270508,217,0.0,1
717,0,1.0,1,6.319264888763428,218,1.0,1
718,0,1.0,1,3.4334380626678467,219,1.0,1
719,0,1.0,1,2.1874122619628906,220,1.0,1
720,0,1.0,1,4.054429054260254,221,1.0,1
721,0,1.0,1,2.3894097805023193,222,1.0,1
722,0,1.0,1,2.504408359527588,223,1.0,1
723,0,1.0,1,2.459408760070801,224,1.0,1
724,0,1.0,1,3.052420139312744,225,1.0,1
725,0,1.0,1,2.790408134460449,226,1.0,1
726,0,1.0,1,2.8424105644226074,227,1.0,1
727,0,1.0,1,2.5324079990386963,228,1.0,1
728,0,1.0,1,2.648406505584717,229,0.0,1
729,0,1.0,1,2.076413869857788,230,1.0,1
730,0,1.0,1,2.8664116859436035,231,0.0,1
731,0,0.0,1,4.26241397857666,232,0.0,1
732,0,0.0,1,3.5994458198547363,233,0.0,1
733,0,0.0,1,4.193418502807617,234,1.0,1
734,0,0.0,1,5.02935791015625,235,0.0,1
735,0,0.0,1,3.7844483852386475,236,1.0,1
736,0,0.0,1,6.033285617828369,237,0.0,1
737,0,0.0,1,4.93736457824707,238,0.0,1
738,0,0.0,1,2.975416660308838,239,1.0,1
739,0,0.0,1,3.6114463806152344,240,0.0,1
740,0,0.0,1,4.138422966003418,241,0.0,1
741,0,0.0,1,3.6164464950561523,242,0.0,1
742,0,1.0,1,3.6434478759765625,243,1.0,1
743,0,1.0,1,3.6224470138549805,244,1.0,1
744,0,1.0,1,4.967362403869629,245,1.0,1
745,0,1.0,1,2.4374091625213623,246,1.0,1
746,0,1.0,1,3.0544204711914062,247,1.0,1
747,0,1.0,1,3.008418083190918,248,1.0,1
748,0,1.0,1,2.6664061546325684,249,1.0,1
749,0,1.0,1,2.4284093379974365,250,1.0,1
750,0,1.0,1,2.7004058361053467,251,0.0,1
751,0,1.0,1,4.334408760070801,252,1.0,1
752,0,1.0,1,4.386404991149902,253,1.0,1
753,0,1.0,1,3.6304473876953125,254,1.0,1
754,0,1.0,1,3.1604251861572266,255,1.0,1
755,0,1.0,1,3.4214375019073486,256,0.0,1
756,0,1.0,1,4.183419227600098,257,1.0,1
757,0,1.0,1,2.8754119873046875,258,1.0,1
758,0,1.0,1,2.732405424118042,259,1.0,1
759,0,1.0,1,3.454439163208008,260,1.0,1
760,0,1.0,1,2.0534141063690186,261,0.0,1
761,0,0.0,1,2.0554139614105225,262,1.0,1
762,0,0.0,1,3.4254376888275146,263,0.0,1
763,0,0.0,1,3.027419090270996,264,0.0,1
764,0,1.0,1,6.819228649139404,265,1.0,1
765,0,1.0,1,3.8224456310272217,266,0.0,1
766,0,1.0,1,6.062283515930176,267,0.0,1
767,0,0.0,1,3.543443202972412,268,0.0,1
768,0,0.0,1,4.247414588928223,269,1.0,1
769,0,0.0,1,2.6544063091278076,270,1.0,1
770,0,0.0,1,2.3374104499816895,271,1.0,1
771,0,0.0,1,2.5274081230163574,272,0.0,1
772,0,1.0,1,2.445409059524536,273,1.0,1
773,0,0.0,1,3.049420118331909,274,0.0,1
774,0,1.0,1,3.1814262866973877,275,1.0,1
775,0,1.0,1,4.258414268493652,276,0.0,1
776,0,1.0,1,2.8754119873046875,277,1.0,1
777,0,1.0,1,2.721405506134033,278,0.0,1
778,0,0.0,1,3.2084274291992188,279,0.0,1
779,0,1.0,1,3.3334333896636963,280,1.0,1
780,0,1.0,1,3.3654348850250244,281,1.0,1
781,0,1.0,1,2.600407123565674,282,0.0,1
782,0,1.0,1,4.327408790588379,283,1.0,1
783,0,1.0,1,3.5704445838928223,284,1.0,1
784,0,1.0,1,2.8904128074645996,285,0.0,1
785,0,1.0,1,2.8694117069244385,286,1.0,1
786,0,1.0,1,3.039419651031494,287,1.0,1
787,0,1.0,1,6.454255104064941,288,1.0,1
788,0,1.0,1,2.321410655975342,289,1.0,1
789,0,1.0,1,2.4374091625213623,290,0.0,1
790,0,0.0,1,2.5704073905944824,291,0.0,1
791,0,0.0,1,3.7204513549804688,292,0.0,1
792,0,1.0,1,4.908367156982422,293,1.0,1
793,0,1.0,1,2.8734118938446045,294,0.0,1
794,0,1.0,1,3.961435556411743,295,1.0,1
795,0,1.0,1,2.8764119148254395,296,0.0,1
796,0,1.0,1,4.688383102416992,297,1.0,1
797,0,1.0,1,2.8294098377227783,298,1.0,1
798,0,1.0,1,2.552407741546631,299,1.0,1
799,0,1.0,1,3.7784488201141357,300,0.0,1
800,0,0.0,1,7.252197265625,301,0.0,1
801,0,1.0,1,4.029430389404297,302,0.0,1
802,0,0.0,1,3.500441074371338,303,0.0,1
803,0,1.0,1,4.316410064697266,304,1.0,1
804,0,1.0,1,2.6094069480895996,305,1.0,1
805,0,1.0,1,3.454439163208008,306,0.0,1
806,0,1.0,1,2.34941029548645,307,1.0,1
807,0,1.0,1,2.769407033920288,308,1.0,1
808,0,1.0,1,2.7064056396484375,309,1.0,1
809,0,1.0,1,3.520442008972168,310,1.0,1
810,0,1.0,1,2.411409378051758,311,1.0,1
811,0,1.0,1,2.6174068450927734,312,0.0,1
812,0,1.0,1,2.4224092960357666,313,0.0,1
813,0,0.0,1,3.8294451236724854,314,0.0,1
814,0,1.0,1,3.6004457473754883,315,1.0,1
815,0,1.0,1,2.3884098529815674,316,1.0,1
816,0,1.0,1,3.6694490909576416,317,1.0,1
817,0,1.0,1,2.736405372619629,318,1.0,1
818,0,1.0,1,2.692405939102173,319,1.0,1
819,0,1.0,1,2.5354080200195312,320,0.0,1
820,0,1.0,1,4.258414268493652,321,1.0,1
821,0,1.0,1,3.060420513153076,322,1.0,1
822,0,1.0,1,4.149421691894531,323,1.0,1
823,0,1.0,1,2.2334117889404297,324,1.0,1
824,0,1.0,1,2.452409029006958,325,1.0,1
825,0,1.0,1,3.0984225273132324,326,0.0,1
826,0,1.0,1,4.209417343139648,327,1.0,1
827,0,1.0,1,2.8714118003845215,328,1.0,1
828,0,1.0,1,2.174412488937378,329,0.0,1
829,0,1.0,1,5.441328048706055,330,0.0,1
830,0,0.0,1,4.002432823181152,331,0.0,1
831,0,1.0,1,3.7654497623443604,332,1.0,1
832,0,1.0,1,4.139422416687012,333,0.0,1
833,0,1.0,1,2.8434104919433594,334,1.0,1
834,0,1.0,1,2.756406307220459,335,1.0,1
835,0,1.0,1,2.271411418914795,336,1.0,1
836,0,1.0,1,2.3724100589752197,337,1.0,1
837,0,1.0,1,2.8734118938446045,338,1.0,1
838,0,1.0,1,3.037419557571411,339,1.0,1
839,0,1.0,1,2.5284080505371094,340,1.0,1
840,0,1.0,1,3.299431800842285,341,1.0,1
841,0,1.0,1,2.8484106063842773,342,0.0,1
842,0,1.0,1,3.3494341373443604,343,1.0,1
843,0,1.0,1,3.230428695678711,344,1.0,1
844,0,1.0,1,2.5334079265594482,345,1.0,1
845,0,1.0,1,2.40140962600708,346,1.0,1
846,0,1.0,1,3.262430191040039,347,1.0,1
847,0,1.0,1,4.157421112060547,348,0.0,1
848,0,0.0,1,3.458439350128174,349,0.0,1
849,0,1.0,1,3.039419651031494,350,1.0,1
850,0,1.0,1,5.328336715698242,351,1.0,1
851,0,1.0,1,2.6684062480926514,352,0.0,1
852,0,1.0,1,4.328409194946289,353,1.0,1
853,0,1.0,1,3.819445848464966,354,1.0,1
854,0,1.0,1,3.031419277191162,355,1.0,1
855,0,1.0,1,2.594407081604004,356,1.0,1
856,0,1.0,1,2.8364100456237793,357,1.0,1
857,0,1.0,1,2.682405948638916,358,1.0,1
858,0,1.0,1,2.601407051086426,359,1.0,1
859,0,1.0,1,2.397409677505493,360,1.0,1
860,0,1.0,1,2.6254067420959473,361,1.0,1
861,0,1.0,1,2.8914127349853516,362,1.0,1
862,0,1.0,1,2.769407033920288,363,0.0,1
863,0,1.0,1,4.243414878845215,364,0.0,1
864,0,1.0,1,3.1294238567352295,365,1.0,1
865,0,1.0,1,2.491408348083496,366,0.0,1
866,0,1.0,1,5.287339210510254,367,1.0,1
867,0,1.0,1,4.027430534362793,368,1.0,1
868,0,1.0,1,2.981416940689087,369,0.0,1
869,0,1.0,1,3.723451614379883,370,1.0,1
870,0,1.0,1,3.557443857192993,371,1.0,1
871,0,1.0,1,3.1304240226745605,372,1.0,1
872,0,1.0,1,2.496408462524414,373,1.0,1
873,0,1.0,1,3.1754260063171387,374,1.0,1
874,0,1.0,1,3.942436933517456,375,0.0,1
875,0,1.0,1,4.028430938720703,376,1.0,1
876,0,1.0,1,3.9784343242645264,377,1.0,1
877,0,1.0,1,2.7184054851531982,378,1.0,1
878,0,1.0,1,2.6584062576293945,379,1.0,1
879,0,1.0,1,2.733405351638794,380,0.0,1
880,0,0.0,1,2.307410717010498,381,1.0,1
881,0,0.0,1,2.9114136695861816,382,0.0,1
882,0,1.0,1,3.021418809890747,383,0.0,1
883,0,1.0,1,3.556443691253662,384,1.0,1
884,0,1.0,1,4.452400207519531,385,1.0,1
885,0,1.0,1,2.648406505584717,386,1.0,1
886,0,1.0,1,2.350410223007202,387,0.0,1
887,0,0.0,1,3.1864266395568848,388,0.0,1
888,0,1.0,1,2.787407875061035,389,1.0,1
889,0,1.0,1,4.22641658782959,390,1.0,1
890,0,1.0,1,3.025418996810913,391,1.0,1
891,0,1.0,1,4.252414703369141,392,0.0,1
892,0,1.0,1,2.54040789604187,393,0.0,1
893,0,0.0,1,2.971416473388672,394,1.0,1
894,0,0.0,1,2.508408308029175,395,0.0,1
895,0,0.0,1,3.20942759513855,396,0.0,1
896,0,0.0,1,5.053356170654297,397,0.0,1
897,0,0.0,1,2.4344091415405273,398,0.0,1
898,0,0.0,1,3.899440050125122,399,0.0,1
899,0,0.0,1,2.8744120597839355,400,0.0,1
900,0,0.0,1,3.0704212188720703,401,1.0,1
901,0,0.0,1,3.6684489250183105,402,0.0,1
902,0,0.0,1,4.839371681213379,403,0.0,1
903,0,0.0,1,3.541443109512329,404,1.0,1
904,0,0.0,1,3.221428155899048,405,0.0,1
905,0,0.0,1,3.013418436050415,406,0.0,1
906,0,0.0,1,2.8964128494262695,407,0.0,1
907,0,1.0,1,5.319336891174316,408,1.0,1
908,0,1.0,1,2.6654062271118164,409,1.0,1
909,0,1.0,1,3.9304378032684326,410,1.0,1
910,0,1.0,1,2.8634114265441895,411,1.0,1
911,0,1.0,1,2.2914109230041504,412,1.0,1
912,0,1.0,1,3.1824264526367188,413,0.0,1
913,0,1.0,1,4.8523712158203125,414,0.0,1
914,0,1.0,1,3.1364240646362305,415,1.0,1
915,0,0.0,1,4.8303728103637695,416,0.0,1
916,0,1.0,1,3.563444137573242,417,1.0,1
917,0,1.0,1,3.258430004119873,418,1.0,1
918,0,1.0,1,2.274411201477051,419,1.0,1
919,0,1.0,1,2.8834123611450195,420,1.0,1
920,0,1.0,1,2.724405527114868,421,1.0,1
921,0,1.0,1,2.3724100589752197,422,1.0,1
922,0,1.0,1,2.9414150714874268,423,1.0,1
923,0,1.0,1,2.598407030105591,424,0.0,1
924,0,1.0,1,3.316432476043701,425,1.0,1
925,0,1.0,1,2.259411334991455,426,1.0,1
926,0,1.0,1,3.7574503421783447,427,1.0,1
927,0,1.0,1,2.6614062786102295,428,1.0,1
928,0,1.0,1,3.210427761077881,429,1.0,1
929,0,1.0,1,2.312410831451416,430,0.0,1
930,0,1.0,1,3.3704352378845215,431,1.0,1
931,0,1.0,1,4.760377883911133,432,1.0,1
932,0,1.0,1,4.3574066162109375,433,1.0,1
933,0,1.0,1,3.03041934967041,434,1.0,1
934,0,1.0,1,2.2804112434387207,435,0.0,1
935,0,1.0,1,3.1294238567352295,436,1.0,1
936,0,0.0,1,2.6084070205688477,437,0.0,1
937,0,1.0,1,4.588390350341797,438,1.0,1
938,0,1.0,1,3.7824485301971436,439,1.0,1
939,0,1.0,1,5.012359619140625,440,1.0,1
940,0,1.0,1,2.5604076385498047,441,0.0,1
941,0,0.0,1,3.4074368476867676,442,0.0,1
942,0,1.0,1,3.03041934967041,443,0.0,1
943,0,1.0,1,2.743405818939209,444,1.0,1
944,0,1.0,1,3.1764259338378906,445,0.0,1
945,0,1.0,1,3.56844425201416,446,0.0,1
946,0,0.0,1,3.9704349040985107,447,0.0,1
947,0,1.0,1,2.8404102325439453,448,1.0,1
948,0,1.0,1,2.9404149055480957,449,0.0,1
949,0,1.0,1,5.489324569702148,450,1.0,1
950,0,1.0,1,4.842371940612793,451,1.0,1
951,0,1.0,1,2.9524154663085938,452,1.0,1
952,0,1.0,1,3.4304380416870117,453,1.0,1
953,0,1.0,1,3.922438383102417,454,0.0,1
954,0,1.0,1,2.400409698486328,455,0.0,1
955,0,1.0,1,2.767406940460205,456,1.0,1
956,0,1.0,1,2.766407012939453,457,0.0,1
957,0,1.0,1,2.2804112434387207,458,1.0,1
958,0,1.0,1,3.5974457263946533,459,1.0,1
959,0,1.0,1,2.1584126949310303,460,1.0,1
960,0,1.0,1,3.02341890335083,461,1.0,1
961,0,1.0,1,2.6534063816070557,462,1.0,1
962,0,1.0,1,3.22942852973938,463,0.0,1
963,0,1.0,1,3.98543381690979,464,1.0,1
964,0,1.0,1,2.6654062271118164,465,0.0,1
965,0,1.0,1,3.308432102203369,466,0.0,1
966,0,0.0,1,3.6424479484558105,467,0.0,1
967,0,1.0,1,6.220272064208984,468,1.0,1
968,0,1.0,1,3.6044459342956543,469,0.0,1
969,0,1.0,1,3.1114230155944824,470,0.0,1
970,0,0.0,1,6.230271339416504,471,1.0,1
971,0,0.0,1,4.512395858764648,472,0.0,1
972,0,1.0,1,4.624387741088867,473,1.0,1
973,0,1.0,1,3.454439163208008,474,1.0,1
974,0,1.0,1,3.3214328289031982,475,1.0,1
975,0,1.0,1,3.1044225692749023,476,1.0,1
976,0,1.0,1,2.7034058570861816,477,1.0,1
977,0,1.0,1,2.304410934448242,478,0.0,1
978,0,1.0,1,5.447327613830566,479,1.0,1
979,0,1.0,1,3.9814341068267822,480,0.0,1
980,0,1.0,1,6.137278079986572,481,0.0,1
981,0,0.0,1,3.203427314758301,482,1.0,1
982,0,0.0,1,4.013431549072266,483,0.0,1
983,0,1.0,1,4.1874189376831055,484,1.0,1
984,0,1.0,1,3.1494247913360596,485,1.0,1
985,0,1.0,1,2.8304100036621094,486,1.0,1
986,0,1.0,1,2.8324098587036133,487,0.0,1
987,0,1.0,1,5.1943464279174805,488,1.0,1
988,0,1.0,1,3.24942946434021,489,0.0,1
989,0,0.0,1,2.45340895652771,490,0.0,1
990,0,1.0,1,3.042419910430908,491,0.0,1
991,0,0.0,1,4.278412818908691,492,0.0,1
992,0,1.0,1,2.5924072265625,493,0.0,1
993,0,0.0,1,5.013359069824219,494,0.0,1
994,0,1.0,1,3.266430377960205,495,1.0,1
995,0,1.0,1,3.305432081222534,496,1.0,1
996,0,1.0,1,2.213412046432495,497,0.0,1
997,0,1.0,1,3.1264238357543945,498,1.0,1
998,0,1.0,1,3.8104465007781982,499,1.0,1
999,0,1.0,1,2.9394149780273438,500,0.0,1
1000,0,1.0,2,6.375260829925537,1,0.0,1
1001,0,0.0,2,2.223411798477173,2,0.0,1
1002,0,0.0,2,3.983433961868286,3,0.0,1
1003,0,0.0,2,3.3994364738464355,4,1.0,1
1004,0,0.0,2,4.598389625549316,5,1.0,1
1005,0,0.0,2,2.8174092769622803,6,0.0,1
1006,0,0.0,2,4.454400062561035,7,1.0,1
1007,0,0.0,2,2.75740647315979,8,1.0,1
1008,0,0.0,2,2.037414312362671,9,1.0,1
1009,0,0.0,2,2.629406690597534,10,1.0,1
1010,0,0.0,2,2.590407133102417,11,1.0,1
1011,0,0.0,2,2.7154054641723633,12,0.0,1
1012,0,0.0,2,2.4274091720581055,13,0.0,1
1013,0,0.0,2,2.4734086990356445,14,1.0,1
1014,0,0.0,2,2.599407196044922,15,0.0,1
1015,0,0.0,2,3.6804494857788086,16,0.0,1
1016,0,0.0,2,4.8743696212768555,17,0.0,1
1017,0,1.0,2,3.5784449577331543,18,1.0,1
1018,0,1.0,2,2.978416919708252,19,1.0,1
1019,0,1.0,2,4.516395568847656,20,0.0,1
1020,0,1.0,2,2.599407196044922,21,0.0,1
1021,0,0.0,2,3.0784215927124023,22,0.0,1
1022,0,0.0,2,3.232428550720215,23,1.0,1
1023,0,0.0,2,2.126413106918335,24,1.0,1
1024,0,0.0,2,2.170412540435791,25,0.0,1
1025,0,0.0,2,5.63431453704834,26,0.0,1
1026,0,0.0,2,2.0144145488739014,27,1.0,1
1027,0,0.0,2,3.4004364013671875,28,0.0,1
1028,0,0.0,2,2.0564141273498535,29,0.0,1
1029,0,1.0,2,4.332408905029297,30,0.0,1
1030,0,0.0,2,5.3173370361328125,31,1.0,1
1031,0,0.0,2,6.034285545349121,32,0.0,1
1032,0,0.0,2,3.3874359130859375,33,1.0,1
1033,0,0.0,2,2.6024069786071777,34,0.0,1
1034,0,0.0,2,3.3544344902038574,35,1.0,1
1035,0,0.0,2,2.949415445327759,36,0.0,1
1036,0,0.0,2,3.6474480628967285,37,1.0,1
1037,0,1.0,2,3.190426826477051,38,1.0,1
1038,0,0.0,2,3.260429859161377,39,1.0,1
1039,0,0.0,2,4.606389045715332,40,1.0,1
1040,0,0.0,2,3.494441032409668,41,0.0,1
1041,0,0.0,2,5.2113447189331055,42,1.0,1
1042,0,1.0,2,4.829372406005859,43,1.0,1
1043,0,1.0,2,3.0804214477539062,44,1.0,1
1044,0,1.0,2,5.180347442626953,45,1.0,1
1045,0,1.0,2,2.687406063079834,46,1.0,1
1046,0,1.0,2,6.547248363494873,47,0.0,1
1047,0,0.0,2,2.633406639099121,48,1.0,1
1048,0,0.0,2,2.747406005859375,49,0.0,1
1049,0,1.0,2,4.268413543701172,50,1.0,1
1050,0,0.0,2,2.7194056510925293,51,0.0,1
1051,0,0.0,2,2.2804112434387207,52,1.0,1
1052,0,1.0,2,4.2764129638671875,53,0.0,1
1053,0,0.0,2,2.64440655708313,54,1.0,1
1054,0,0.0,2,2.0114145278930664,55,0.0,1
1055,0,0.0,2,5.207345008850098,56,0.0,1
1056,0,1.0,2,4.356407165527344,57,1.0,1
1057,0,1.0,2,3.3624348640441895,58,1.0,1
1058,0,1.0,2,3.225428342819214,59,0.0,1
1059,0,0.0,2,2.9254143238067627,60,0.0,1
1060,0,1.0,2,2.738405704498291,61,1.0,1
1061,0,1.0,2,3.3854358196258545,62,1.0,1
1062,0,1.0,2,2.6034069061279297,63,1.0,1
1063,0,1.0,2,2.9024133682250977,64,0.0,1
1064,0,1.0,2,3.320432662963867,65,1.0,1
1065,0,1.0,2,2.9564156532287598,66,1.0,1
1066,0,1.0,2,3.8924405574798584,67,1.0,1
1067,0,1.0,2,3.008418083190918,68,0.0,1
1068,0,1.0,2,5.597316741943359,69,1.0,1
1069,0,1.0,2,4.253414154052734,70,0.0,1
1070,0,1.0,2,3.015418529510498,71,1.0,1
1071,0,1.0,2,2.3764100074768066,72,0.0,1
1072,0,0.0,2,2.4204094409942627,73,1.0,1
1073,0,0.0,2,4.014431953430176,74,0.0,1
1074,0,1.0,2,4.881368637084961,75,0.0,1
1075,0,0.0,2,2.2944109439849854,76,1.0,1
1076,0,0.0,2,2.031414270401001,77,1.0,1
1077,0,0.0,2,2.2514114379882812,78,1.0,1
1078,0,0.0,2,2.8474106788635254,79,0.0,1
1079,0,0.0,2,2.6494064331054688,80,1.0,1
1080,0,0.0,2,2.643406391143799,81,0.0,1
1081,0,0.0,2,2.207412004470825,82,0.0,1
1082,0,0.0,2,3.291431427001953,83,1.0,1
1083,0,0.0,2,3.2124276161193848,84,1.0,1
1084,0,0.0,2,2.724405527114868,85,0.0,1
1085,0,0.0,2,1.9754149913787842,86,0.0,1
1086,0,0.0,2,3.044419765472412,87,0.0,1
1087,0,1.0,2,3.0734212398529053,88,1.0,1
1088,0,1.0,2,3.2044272422790527,89,0.0,1
1089,0,1.0,2,6.028285980224609,90,1.0,1
1090,0,1.0,2,2.266411304473877,91,1.0,1
1091,0,1.0,2,2.6584062576293945,92,1.0,1
1092,0,1.0,2,2.751406192779541,93,1.0,1
1093,0,1.0,2,2.761406660079956,94,1.0,1
1094,0,1.0,2,2.4704086780548096,95,0.0,1
1095,0,1.0,2,6.112279891967773,96,0.0,1
1096,0,0.0,2,2.6984057426452637,97,1.0,1
1097,0,0.0,2,3.6094462871551514,98,1.0,1
1098,0,0.0,2,2.490408420562744,99,1.0,1
1099,0,0.0,2,2.224411964416504,100,1.0,1
1100,0,0.0,2,2.1614127159118652,101,0.0,1
1101,0,0.0,2,2.8954129219055176,102,0.0,1
1102,0,1.0,2,3.46243953704834,103,1.0,1
1103,0,1.0,2,2.7204055786132812,104,1.0,1
1104,0,1.0,2,2.8564109802246094,105,1.0,1
1105,0,1.0,2,3.6014459133148193,106,0.0,1
1106,0,1.0,2,2.8414103984832764,107,1.0,1
1107,0,1.0,2,3.041419744491577,108,1.0,1
1108,0,1.0,2,2.494408369064331,109,1.0,1
1109,0,1.0,2,2.9374148845672607,110,0.0,1
1110,0,1.0,2,2.5724074840545654,111,1.0,1
1111,0,1.0,2,2.8264098167419434,112,1.0,1
1112,0,1.0,2,2.99041748046875,113,1.0,1
1113,0,1.0,2,3.6604485511779785,114,0.0,1
1114,0,1.0,2,5.482325553894043,115,0.0,1
1115,0,0.0,2,4.445400238037109,116,0.0,1
1116,0,0.0,2,5.945291996002197,117,1.0,1
1117,0,0.0,2,3.5744447708129883,118,1.0,1
1118,0,0.0,2,2.773407220840454,119,0.0,1
1119,0,0.0,2,2.975416660308838,120,0.0,1
1120,0,0.0,2,2.0024147033691406,121,0.0,1
1121,0,0.0,2,6.382260322570801,122,1.0,1
1122,0,0.0,2,2.306410789489746,123,1.0,1
1123,0,0.0,2,2.680406093597412,124,1.0,1
1124,0,0.0,2,2.5184080600738525,125,0.0,1
1125,0,0.0,2,2.3224105834960938,126,1.0,1
1126,0,0.0,2,2.415409564971924,127,0.0,1
1127,0,0.0,2,5.75730562210083,128,0.0,1
1128,0,0.0,2,3.6554484367370605,129,0.0,1
1129,0,0.0,2,5.563319206237793,130,0.0,1
1130,0,0.0,2,2.02541446685791,131,0.0,1
1131,0,1.0,2,4.163420677185059,132,1.0,1
1132,0,1.0,2,3.516441822052002,133,0.0,1
1133,0,1.0,2,5.560319900512695,134,0.0,1
1134,0,0.0,2,3.3784356117248535,135,1.0,1
1135,0,0.0,2,2.539407730102539,136,0.0,1
1136,0,0.0,2,3.263430118560791,137,0.0,1
1137,0,0.0,2,4.056428909301758,138,0.0,1
1138,0,0.0,2,3.235428810119629,139,1.0,1
1139,0,0.0,2,3.1274237632751465,140,0.0,1
1140,0,0.0,2,2.6184067726135254,141,1.0,1
1141,0,0.0,2,3.272430419921875,142,0.0,1
1142,0,0.0,2,2.754406452178955,143,0.0,1
1143,0,1.0,2,3.267430305480957,144,0.0,1
1144,0,0.0,2,3.8434441089630127,145,1.0,1
1145,0,0.0,2,4.022431373596191,146,1.0,1
1146,0,0.0,2,2.3934097290039062,147,0.0,1
1147,0,0.0,2,2.5784072875976562,148,0.0,1
1148,0,0.0,2,4.965362548828125,149,1.0,1
1149,0,0.0,2,3.1374242305755615,150,0.0,1
1150,0,0.0,2,2.413409471511841,151,1.0,1
1151,0,0.0,2,2.8764119148254395,152,0.0,1
1152,0,0.0,2,4.068428039550781,153,0.0,1
1153,0,1.0,2,6.630242347717285,154,0.0,1
1154,0,1.0,2,2.8694117069244385,155,0.0,1
1155,0,1.0,2,5.498324394226074,156,1.0,1
1156,0,1.0,2,2.8104090690612793,157,1.0,1
1157,0,1.0,2,4.217416763305664,158,1.0,1
1158,0,1.0,2,3.1314239501953125,159,1.0,1
1159,0,1.0,2,3.1954269409179688,160,1.0,1
1160,0,1.0,2,2.225411891937256,161,1.0,1
1161,0,1.0,2,3.013418436050415,162,0.0,1
1162,0,1.0,2,3.6674489974975586,163,1.0,1
1163,0,1.0,2,3.517441987991333,164,1.0,1
1164,0,1.0,2,2.357410192489624,165,1.0,1
1165,0,1.0,2,3.4254376888275146,166,0.0,1
1166,0,1.0,2,2.9134137630462646,167,0.0,1
1167,0,0.0,2,3.0784215927124023,168,0.0,1
1168,0,0.0,2,3.9764344692230225,169,0.0,1
1169,0,1.0,2,3.7034506797790527,170,1.0,1
1170,0,1.0,2,3.6874499320983887,171,1.0,1
1171,0,1.0,2,2.3904097080230713,172,1.0,1
1172,0,1.0,2,2.495408535003662,173,1.0,1
1173,0,1.0,2,2.6044070720672607,174,0.0,1
1174,0,1.0,2,6.250269889831543,175,1.0,1
1175,0,1.0,2,3.480440139770508,176,1.0,1
1176,0,1.0,2,2.747406005859375,177,1.0,1
1177,0,1.0,2,2.991417407989502,178,0.0,1
1178,0,1.0,2,2.8194093704223633,179,1.0,1
1179,0,1.0,2,2.934414863586426,180,1.0,1
1180,0,1.0,2,2.3454103469848633,181,1.0,1
1181,0,1.0,2,2.728405475616455,182,1.0,1
1182,0,1.0,2,3.4484386444091797,183,1.0,1
1183,0,1.0,2,2.6674060821533203,184,1.0,1
1184,0,1.0,2,2.8344101905822754,185,1.0,1
1185,0,1.0,2,2.688405990600586,186,1.0,1
1186,0,1.0,2,2.3224105834960938,187,0.0,1
1187,0,1.0,2,2.451408863067627,188,0.0,1
1188,0,1.0,2,2.9044132232666016,189,1.0,1
1189,0,1.0,2,4.9383649826049805,190,0.0,1
1190,0,1.0,2,3.492440700531006,191,1.0,1
1191,0,0.0,2,2.8574111461639404,192,0.0,1
1192,0,1.0,2,2.415409564971924,193,1.0,1
1193,0,1.0,2,3.1544251441955566,194,0.0,1
1194,0,0.0,2,2.355410099029541,195,1.0,1
1195,0,0.0,2,2.1544127464294434,196,0.0,1
1196,0,0.0,2,3.1394243240356445,197,1.0,1
1197,0,0.0,2,2.8424105644226074,198,1.0,1
1198,0,0.0,2,3.580444812774658,199,0.0,1
1199,0,1.0,2,2.4404091835021973,200,1.0,1
1200,0,1.0,2,2.998417854309082,201,0.0,1
1201,0,1.0,2,5.234343528747559,202,0.0,1
1202,0,0.0,2,3.3974363803863525,203,1.0,1
1203,0,0.0,2,2.130413055419922,204,0.0,1
1204,0,0.0,2,2.4384090900421143,205,0.0,1
1205,0,0.0,2,3.9174387454986572,206,1.0,1
1206,0,0.0,2,2.307410717010498,207,0.0,1
1207,0,0.0,2,2.461408853530884,208,0.0,1
1208,0,0.0,2,4.348407745361328,209,1.0,1
1209,0,0.0,2,3.552443504333496,210,1.0,1
1210,0,0.0,2,2.591407299041748,211,1.0,1
1211,0,0.0,2,2.459408760070801,212,0.0,1
1212,0,0.0,2,2.748405933380127,213,1.0,1
1213,0,0.0,2,2.0914134979248047,214,0.0,1
1214,0,0.0,2,4.232416152954102,215,1.0,1
1215,0,0.0,2,4.35440731048584,216,0.0,1
1216,0,0.0,2,2.6514062881469727,217,0.0,1
1217,0,0.0,2,3.4374382495880127,218,1.0,1
1218,0,1.0,2,3.3504343032836914,219,1.0,1
1219,0,1.0,2,3.1524248123168945,220,1.0,1
1220,0,1.0,2,3.795447587966919,221,0.0,1
1221,0,0.0,2,2.6244068145751953,222,0.0,1
1222,0,1.0,2,5.426329612731934,223,1.0,1
1223,0,1.0,2,3.276430606842041,224,1.0,1
1224,0,1.0,2,3.1104230880737305,225,0.0,1
1225,0,1.0,2,4.588390350341797,226,0.0,1
1226,0,0.0,2,5.062355995178223,227,1.0,1
1227,0,0.0,2,3.3844356536865234,228,0.0,1
1228,0,0.0,2,4.982361793518066,229,0.0,1
1229,0,1.0,2,4.255414009094238,230,1.0,1
1230,0,1.0,2,3.9384372234344482,231,1.0,1
1231,0,1.0,2,4.662384986877441,232,1.0,1
1232,0,1.0,2,3.4484386444091797,233,0.0,1
1233,0,1.0,2,4.303410530090332,234,0.0,1
1234,0,1.0,2,2.729405403137207,235,0.0,1
1235,0,1.0,2,3.4524388313293457,236,1.0,1
1236,0,1.0,2,3.6054461002349854,237,1.0,1
1237,0,1.0,2,2.674406051635742,238,1.0,1
1238,0,1.0,2,3.7374517917633057,239,0.0,1
1239,0,1.0,2,5.927293300628662,240,0.0,1
1240,0,1.0,2,4.242415428161621,241,1.0,1
1241,0,1.0,2,3.053420305252075,242,1.0,1
1242,0,1.0,2,2.639406681060791,243,1.0,1
1243,0,1.0,2,4.139422416687012,244,1.0,1
1244,0,1.0,2,2.405409574508667,245,0.0,1
1245,0,0.0,2,5.394331932067871,246,1.0,1
1246,0,0.0,2,4.2294158935546875,247,1.0,1
1247,0,0.0,2,4.301410675048828,248,1.0,1
1248,0,0.0,2,2.8234095573425293,249,1.0,1
1249,0,0.0,2,2.115413188934326,250,1.0,1
1250,0,0.0,2,3.3574345111846924,251,0.0,1
1251,0,0.0,2,3.89844012260437,252,1.0,1
1252,0,1.0,2,3.8904407024383545,253,1.0,1
1253,0,0.0,2,2.77740740776062,254,0.0,1
1254,0,1.0,2,3.8424441814422607,255,1.0,1
1255,0,1.0,2,4.22641658782959,256,0.0,1
1256,0,1.0,2,5.571318626403809,257,1.0,1
1257,0,1.0,2,6.5162506103515625,258,0.0,1
1258,0,0.0,2,4.291411399841309,259,0.0,1
1259,0,1.0,2,4.905366897583008,260,0.0,1
1260,0,0.0,2,4.47139835357666,261,1.0,1
1261,0,1.0,2,3.3194327354431152,262,0.0,1
1262,0,0.0,2,3.264430046081543,263,0.0,1
1263,0,0.0,2,4.853370666503906,264,0.0,1
1264,0,0.0,2,4.547392845153809,265,1.0,1
1265,0,0.0,2,2.8114089965820312,266,0.0,1
1266,0,0.0,2,3.1584253311157227,267,0.0,1
1267,0,0.0,2,2.791408061981201,268,1.0,1
1268,0,0.0,2,2.5114083290100098,269,0.0,1
1269,0,1.0,2,5.446328163146973,270,1.0,1
1270,0,0.0,2,5.3173370361328125,271,1.0,1
1271,0,0.0,2,3.223428249359131,272,1.0,1
1272,0,0.0,2,4.250414848327637,273,0.0,1
1273,0,0.0,2,3.9574358463287354,274,1.0,1
1274,0,0.0,2,2.964416027069092,275,0.0,1
1275,0,1.0,2,2.5164082050323486,276,1.0,1
1276,0,1.0,2,3.005418062210083,277,0.0,1
1277,0,1.0,2,5.6693115234375,278,1.0,1
1278,0,1.0,2,5.319336891174316,279,1.0,1
1279,0,1.0,2,2.8854124546051025,280,1.0,1
1280,0,1.0,2,2.596407175064087,281,1.0,1
1281,0,1.0,2,3.027419090270996,282,1.0,1
1282,0,0.0,2,2.490408420562744,283,1.0,1
1283,0,0.0,2,3.235428810119629,284,1.0,1
1284,0,1.0,2,3.1974270343780518,285,1.0,1
1285,0,0.0,2,3.7594501972198486,286,1.0,1
1286,0,0.0,2,2.8774120807647705,287,1.0,1
1287,0,1.0,2,6.0492844581604,288,1.0,1
1288,0,1.0,2,2.960415840148926,289,0.0,1
1289,0,0.0,2,2.1434128284454346,290,0.0,1
1290,0,1.0,2,6.53524923324585,291,1.0,1
1291,0,1.0,2,3.3454339504241943,292,0.0,1
1292,0,0.0,2,2.3004109859466553,293,0.0,1
1293,0,1.0,2,2.767406940460205,294,0.0,1
1294,0,0.0,2,5.771304607391357,295,0.0,1
1295,0,0.0,2,5.12235164642334,296,0.0,1
1296,0,0.0,2,5.676311492919922,297,1.0,1
1297,0,0.0,2,5.704309463500977,298,1.0,1
1298,0,0.0,2,2.502408266067505,299,1.0,1
1299,0,0.0,2,2.457408905029297,300,1.0,1
1300,0,0.0,2,2.2014122009277344,301,1.0,1
1301,0,0.0,2,2.263411521911621,302,0.0,1
1302,0,0.0,2,2.403409481048584,303,0.0,1
1303,0,1.0,2,4.661384582519531,304,0.0,1
1304,0,0.0,2,4.840372085571289,305,0.0,1
1305,0,0.0,2,3.279430866241455,306,1.0,1
1306,0,0.0,2,5.92629337310791,307,0.0,1
1307,0,0.0,2,2.991417407989502,308,1.0,1
1308,0,0.0,2,2.7114057540893555,309,0.0,1
1309,0,1.0,2,3.1464247703552246,310,0.0,1
1310,0,0.0,2,2.400409698486328,311,0.0,1
1311,0,0.0,2,5.527321815490723,312,1.0,1
1312,0,0.0,2,4.342408180236816,313,1.0,1
1313,0,0.0,2,2.261411428451538,314,0.0,1
1314,0,0.0,2,2.79740834236145,315,0.0,1
1315,0,0.0,2,3.5784449577331543,316,0.0,1
1316,0,0.0,2,2.7054057121276855,317,0.0,1
1317,0,0.0,2,6.128278732299805,318,0.0,1
1318,0,0.0,2,3.1994271278381348,319,1.0,1
1319,0,0.0,2,3.4264378547668457,320,1.0,1
1320,0,0.0,2,2.681406021118164,321,1.0,1
1321,0,0.0,2,2.2754111289978027,322,0.0,1
1322,0,0.0,2,2.792407989501953,323,1.0,1
1323,0,0.0,2,3.5774447917938232,324,1.0,1
1324,0,0.0,2,2.3014109134674072,325,0.0,1
1325,0,0.0,2,2.58640718460083,326,1.0,1
1326,0,0.0,2,3.1414244174957275,327,0.0,1
1327,0,0.0,2,3.267430305480957,328,0.0,1
1328,0,0.0,2,5.481325149536133,329,1.0,1
1329,0,0.0,2,2.637406587600708,330,0.0,1
1330,0,0.0,2,3.3264331817626953,331,1.0,1
1331,0,0.0,2,4.52839469909668,332,0.0,1
1332,0,0.0,2,3.1734259128570557,333,1.0,1
1333,0,0.0,2,1.9924148321151733,334,0.0,1
1334,0,0.0,2,2.682405948638916,335,1.0,1
1335,0,0.0,2,2.6624062061309814,336,1.0,1
1336,0,0.0,2,3.0704212188720703,337,1.0,1
1337,0,0.0,2,2.635406494140625,338,0.0,1
1338,0,1.0,2,4.877368927001953,339,1.0,1
1339,0,1.0,2,3.547443389892578,340,1.0,1
1340,0,1.0,2,5.697309494018555,341,1.0,1
1341,0,1.0,2,3.1714258193969727,342,1.0,1
1342,0,1.0,2,2.5714073181152344,343,1.0,1
1343,0,0.0,2,4.2344160079956055,344,0.0,1
1344,0,1.0,2,2.6524064540863037,345,0.0,1
1345,0,0.0,2,4.530394554138184,346,0.0,1
1346,0,1.0,2,4.51739501953125,347,1.0,1
1347,0,1.0,2,4.934365272521973,348,1.0,1
1348,0,1.0,2,2.4384090900421143,349,1.0,1
1349,0,1.0,2,3.313432455062866,350,1.0,1
1350,0,1.0,2,3.072421073913574,351,0.0,1
1351,0,1.0,2,2.5174081325531006,352,1.0,1
1352,0,1.0,2,3.1814262866973877,353,1.0,1
1353,0,1.0,2,4.031430244445801,354,1.0,1
1354,0,1.0,2,2.795408248901367,355,0.0,1
1355,0,1.0,2,2.9394149780273438,356,1.0,1
1356,0,1.0,2,3.0714211463928223,357,0.0,1
1357,0,0.0,2,3.5624442100524902,358,1.0,1
1358,0,0.0,2,2.8634114265441895,359,1.0,1
1359,0,0.0,2,2.40740966796875,360,1.0,1
1360,0,1.0,2,5.228343963623047,361,1.0,1
1361,0,0.0,2,4.065427780151367,362,1.0,1
1362,0,0.0,2,2.305410861968994,363,0.0,1
1363,0,0.0,2,6.620243072509766,364,1.0,1
1364,0,1.0,2,2.4624087810516357,365,1.0,1
1365,0,0.0,2,2.8334100246429443,366,1.0,1
1366,0,0.0,2,3.033419370651245,367,0.0,1
1367,0,1.0,2,4.630387306213379,368,0.0,1
1368,0,0.0,2,5.302338600158691,369,0.0,1
1369,0,0.0,2,5.9412922859191895,370,1.0,1
1370,0,0.0,2,2.734405517578125,371,0.0,1
1371,0,1.0,2,4.358407020568848,372,1.0,1
1372,0,1.0,2,3.6424479484558105,373,1.0,1
1373,0,1.0,2,3.243429183959961,374,0.0,1
1374,0,0.0,2,2.6614062786102295,375,1.0,1
1375,0,0.0,2,2.581407308578491,376,0.0,1
1376,0,0.0,2,4.882369041442871,377,0.0,1
1377,0,1.0,2,2.451408863067627,378,1.0,1
1378,0,1.0,2,2.364410161972046,379,0.0,1
1379,0,1.0,2,2.449409008026123,380,0.0,1
1380,0,0.0,2,4.6773834228515625,381,0.0,1
1381,0,1.0,2,2.1904122829437256,382,0.0,1
1382,0,1.0,2,5.502324104309082,383,1.0,1
1383,0,1.0,2,3.6544485092163086,384,0.0,1
1384,0,0.0,2,3.900439977645874,385,1.0,1
1385,0,0.0,2,4.935364723205566,386,0.0,1
1386,0,0.0,2,3.4354381561279297,387,0.0,1
1387,0,1.0,2,4.5913896560668945,388,1.0,1
1388,0,1.0,2,3.278430938720703,389,1.0,1
1389,0,0.0,2,3.3524341583251953,390,0.0,1
1390,0,1.0,2,4.194418907165527,391,0.0,1
1391,0,1.0,2,4.508396148681641,392,0.0,1
1392,0,0.0,2,5.593317031860352,393,1.0,1
1393,0,0.0,2,2.4654088020324707,394,0.0,1
1394,0,1.0,2,2.957415819168091,395,1.0,1
1395,0,0.0,2,2.957415819168091,396,0.0,1
1396,0,0.0,2,2.497408390045166,397,0.0,1
1397,0,1.0,2,4.303410530090332,398,1.0,1
1398,0,1.0,2,2.760406494140625,399,0.0,1
1399,0,1.0,2,3.6644487380981445,400,0.0,1
1400,0,1.0,2,5.038357734680176,401,1.0,1
1401,0,1.0,2,4.458399772644043,402,1.0,1
1402,0,1.0,2,4.642386436462402,403,0.0,1
1403,0,1.0,2,4.377405166625977,404,1.0,1
1404,0,1.0,2,2.73740553855896,405,1.0,1
1405,0,1.0,2,3.6574485301971436,406,1.0,1
1406,0,1.0,2,3.011418342590332,407,1.0,1
1407,0,1.0,2,3.540442943572998,408,1.0,1
1408,0,1.0,2,2.69040584564209,409,1.0,1
1409,0,1.0,2,2.7204055786132812,410,0.0,1
1410,0,1.0,2,4.072427749633789,411,1.0,1
1411,0,1.0,2,2.951415538787842,412,0.0,1
1412,0,1.0,2,5.016359329223633,413,1.0,1
1413,0,1.0,2,4.173419952392578,414,0.0,1
1414,0,1.0,2,4.4044036865234375,415,0.0,1
1415,0,1.0,2,5.950291633605957,416,0.0,1
1416,0,0.0,2,6.6632399559021,417,0.0,1
1417,0,0.0,2,4.988361358642578,418,0.0,1
1418,0,0.0,2,2.406409502029419,419,0.0,1
1419,0,1.0,2,5.316337585449219,420,0.0,1
1420,0,1.0,2,5.265340805053711,421,1.0,1
1421,0,1.0,2,3.8244454860687256,422,0.0,1
1422,0,1.0,2,2.583407402038574,423,1.0,1
1423,0,1.0,2,3.3444337844848633,424,0.0,1
1424,0,1.0,2,3.055420398712158,425,0.0,1
1425,0,1.0,2,5.426329612731934,426,0.0,1
1426,0,1.0,2,5.385332107543945,427,1.0,1
1427,0,1.0,2,3.1794261932373047,428,1.0,1
1428,0,1.0,2,2.403409481048584,429,0.0,1
1429,0,1.0,2,3.540442943572998,430,1.0,1
1430,0,1.0,2,2.412409543991089,431,0.0,1
1431,0,0.0,2,3.218428134918213,432,1.0,1
1432,0,0.0,2,3.0984225273132324,433,1.0,1
1433,0,0.0,2,4.408403396606445,434,0.0,1
1434,0,0.0,2,4.061428070068359,435,1.0,1
1435,0,0.0,2,2.971416473388672,436,0.0,1
1436,0,0.0,2,5.738306999206543,437,0.0,1
1437,0,0.0,2,2.681406021118164,438,1.0,1
1438,0,0.0,2,2.2964110374450684,439,0.0,1
1439,0,1.0,2,3.1524248123168945,440,0.0,1
1440,0,0.0,2,3.9584357738494873,441,0.0,1
1441,0,0.0,2,4.413402557373047,442,0.0,1
1442,0,0.0,2,2.599407196044922,443,0.0,1
1443,0,1.0,2,3.52244234085083,444,1.0,1
1444,0,1.0,2,2.8214094638824463,445,1.0,1
1445,0,1.0,2,2.8534109592437744,446,0.0,1
1446,0,1.0,2,4.291411399841309,447,1.0,1
1447,0,1.0,2,2.404409646987915,448,1.0,1
1448,0,1.0,2,2.969416379928589,449,0.0,1
1449,0,1.0,2,2.733405351638794,450,1.0,1
1450,0,1.0,2,3.0694210529327393,451,1.0,1
1451,0,1.0,2,3.5824451446533203,452,0.0,1
1452,0,1.0,2,2.972416400909424,453,1.0,1
1453,0,1.0,2,2.991417407989502,454,1.0,1
1454,0,1.0,2,2.316410779953003,455,1.0,1
1455,0,1.0,2,2.778407573699951,456,1.0,1
1456,0,1.0,2,3.264430046081543,457,1.0,1
1457,0,1.0,2,2.3454103469848633,458,1.0,1
1458,0,1.0,2,2.309410810470581,459,1.0,1
1459,0,1.0,2,3.238429069519043,460,0.0,1
1460,0,1.0,2,4.544393539428711,461,1.0,1
1461,0,1.0,2,3.064420700073242,462,0.0,1
1462,0,1.0,2,5.825300693511963,463,0.0,1
1463,0,0.0,2,2.3224105834960938,464,0.0,1
1464,0,1.0,2,7.063210964202881,465,0.0,1
1465,0,0.0,2,4.644386291503906,466,0.0,1
1466,0,1.0,2,2.8614113330841064,467,0.0,1
1467,0,1.0,2,5.330336570739746,468,1.0,1
1468,0,1.0,2,4.622387886047363,469,1.0,1
1469,0,1.0,2,4.081426620483398,470,1.0,1
1470,0,1.0,2,4.320409774780273,471,0.0,1
1471,0,1.0,2,8.050139427185059,472,1.0,1
1472,0,1.0,2,2.8494107723236084,473,1.0,1
1473,0,1.0,2,2.689405918121338,474,0.0,1
1474,0,0.0,2,5.872297286987305,475,0.0,1
1475,0,0.0,2,2.58640718460083,476,1.0,1
1476,0,1.0,2,2.362410068511963,477,1.0,1
1477,0,0.0,2,6.747233867645264,478,1.0,1
1478,0,0.0,2,2.537407875061035,479,1.0,1
1479,0,1.0,2,4.715380668640137,480,0.0,1
1480,0,0.0,2,3.022418975830078,481,0.0,1
1481,0,0.0,2,2.8254096508026123,482,1.0,1
1482,0,1.0,2,3.046420097351074,483,0.0,1
1483,0,0.0,2,2.3724100589752197,484,1.0,1
1484,0,0.0,2,2.5564076900482178,485,1.0,1
1485,0,0.0,2,2.9134137630462646,486,0.0,1
1486,0,0.0,2,2.744405746459961,487,1.0,1
1487,0,0.0,2,3.5784449577331543,488,0.0,1
1488,0,0.0,2,4.096426010131836,489,1.0,1
1489,0,0.0,2,2.3864097595214844,490,1.0,1
1490,0,0.0,2,2.992417335510254,491,1.0,1
1491,0,0.0,2,2.364410161972046,492,0.0,1
1492,0,0.0,2,2.1464128494262695,493,0.0,1
1493,0,0.0,2,5.440328598022461,494,1.0,1
1494,0,0.0,2,2.317410707473755,495,0.0,1
1495,0,0.0,2,4.981361389160156,496,0.0,1
1496,0,1.0,2,3.3514342308044434,497,1.0,1
1497,0,1.0,2,2.40740966796875,498,1.0,1
1498,0,1.0,2,2.49940824508667,499,0.0,1
1499,0,1.0,2,4.329408645629883,500,0.0,1
1500,1,1.0,0,4.604790687561035,1,1.0,1
1501,1,1.0,0,4.328810691833496,2,0.0,1
1502,1,0.0,0,3.3528571128845215,3,0.0,1
1503,1,0.0,0,4.162822723388672,4,0.0,1
1504,1,1.0,0,2.3308229446411133,5,1.0,1
1505,1,1.0,0,4.307812690734863,6,1.0,1
1506,1,1.0,0,3.3778581619262695,7,1.0,1
1507,1,1.0,0,2.8268322944641113,8,0.0,1
1508,1,0.0,0,2.104825735092163,9,0.0,1
1509,1,1.0,0,2.4218215942382812,10,1.0,1
1510,1,1.0,0,2.783830404281616,11,1.0,1
1511,1,1.0,0,4.026832580566406,12,1.0,1
1512,1,1.0,0,2.996840476989746,13,0.0,1
1513,1,1.0,0,5.463728904724121,14,1.0,1
1514,1,1.0,0,2.3678224086761475,15,1.0,1
1515,1,1.0,0,2.684825897216797,16,1.0,1
1516,1,1.0,0,2.758829116821289,17,1.0,1
1517,1,1.0,0,2.6048221588134766,18,0.0,1
1518,1,1.0,0,6.480655193328857,19,1.0,1
1519,1,1.0,0,2.7918307781219482,20,1.0,1
1520,1,1.0,0,2.675825357437134,21,0.0,1
1521,1,1.0,0,4.820775032043457,22,1.0,1
1522,1,1.0,0,2.395822048187256,23,1.0,1
1523,1,1.0,0,3.7518527507781982,24,1.0,1
1524,1,1.0,0,2.4718210697174072,25,1.0,1
1525,1,1.0,0,2.8798348903656006,26,1.0,1
1526,1,1.0,0,3.554866313934326,27,1.0,1
1527,1,1.0,0,2.724827766418457,28,0.0,1
1528,1,1.0,0,2.693826198577881,29,0.0,1
1529,1,1.0,0,4.973764419555664,30,1.0,1
1530,1,1.0,0,2.48482084274292,31,1.0,1
1531,1,1.0,0,3.693856954574585,32,1.0,1
1532,1,1.0,0,2.6498241424560547,33,0.0,1
1533,1,1.0,0,3.3038547039031982,34,1.0,1
1534,1,1.0,0,2.5878212451934814,35,1.0,1
1535,1,1.0,0,2.6018218994140625,36,0.0,1
1536,1,1.0,0,3.247852087020874,37,1.0,1
1537,1,1.0,0,4.058830261230469,38,0.0,1
1538,1,0.0,0,3.6858575344085693,39,0.0,1
1539,1,1.0,0,4.880770683288574,40,1.0,1
1540,1,1.0,0,3.310854911804199,41,1.0,1
1541,1,1.0,0,2.990839958190918,42,1.0,1
1542,1,1.0,0,2.526820421218872,43,1.0,1
1543,1,0.0,0,1.8708287477493286,44,1.0,1
1544,1,1.0,0,2.6038219928741455,45,1.0,1
1545,1,1.0,0,2.8078315258026123,46,0.0,1
1546,1,0.0,0,3.910841226577759,47,0.0,1
1547,1,1.0,0,2.8258323669433594,48,1.0,1
1548,1,1.0,0,2.8448333740234375,49,1.0,1
1549,1,1.0,0,2.3718223571777344,50,1.0,1
1550,1,1.0,0,4.0848283767700195,51,1.0,1
1551,1,1.0,0,2.100825786590576,52,1.0,1
1552,1,1.0,0,2.8818349838256836,53,1.0,1
1553,1,1.0,0,2.782830238342285,54,1.0,1
1554,1,1.0,0,4.329811096191406,55,1.0,1
1555,1,1.0,0,3.536865711212158,56,1.0,1
1556,1,1.0,0,4.34181022644043,57,1.0,1
1557,1,1.0,0,3.690857172012329,58,1.0,1
1558,1,1.0,0,2.706826686859131,59,0.0,1
1559,1,0.0,0,2.6348233222961426,60,0.0,1
1560,1,1.0,0,2.6178226470947266,61,1.0,1
1561,1,1.0,0,2.949838161468506,62,1.0,1
1562,1,1.0,0,3.3528571128845215,63,1.0,1
1563,1,1.0,0,3.4508614540100098,64,0.0,1
1564,1,1.0,0,4.004834175109863,65,1.0,1
1565,1,1.0,0,3.6218621730804443,66,0.0,1
1566,1,1.0,0,3.9198405742645264,67,0.0,1
1567,1,0.0,0,2.115825653076172,68,0.0,1
1568,1,0.0,0,3.020841598510742,69,0.0,1
1569,1,1.0,0,3.4228601455688477,70,0.0,1
1570,1,1.0,0,4.302812576293945,71,1.0,1
1571,1,1.0,0,2.2768235206604004,72,1.0,1
1572,1,1.0,0,2.8538336753845215,73,1.0,1
1573,1,1.0,0,2.761829376220703,74,1.0,1
1574,1,1.0,0,3.3378562927246094,75,1.0,1
1575,1,1.0,0,2.074826240539551,76,1.0,1
1576,1,1.0,0,3.0918447971343994,77,1.0,1
1577,1,1.0,0,3.3878586292266846,78,1.0,1
1578,1,1.0,0,2.300823211669922,79,1.0,1
1579,1,1.0,0,2.390822172164917,80,1.0,1
1580,1,1.0,0,3.3908586502075195,81,0.0,1
1581,1,1.0,0,5.930695056915283,82,1.0,1
1582,1,1.0,0,2.939837694168091,83,1.0,1
1583,1,1.0,0,2.206824541091919,84,1.0,1
1584,1,1.0,0,3.467862367630005,85,1.0,1
1585,1,1.0,0,2.8638341426849365,86,1.0,1
1586,1,1.0,0,2.980839729309082,87,1.0,1
1587,1,1.0,0,4.6827850341796875,88,1.0,1
1588,1,1.0,0,2.392822027206421,89,1.0,1
1589,1,1.0,0,2.244823932647705,90,0.0,1
1590,1,1.0,0,6.1586785316467285,91,1.0,1
1591,1,1.0,0,2.703826665878296,92,0.0,1
1592,1,0.0,0,5.034759521484375,93,1.0,1
1593,1,1.0,0,4.9807634353637695,94,1.0,1
1594,1,0.0,0,5.212746620178223,95,0.0,1
1595,1,1.0,0,2.5808210372924805,96,0.0,1
1596,1,0.0,0,3.020841598510742,97,1.0,1
1597,1,1.0,0,6.410660266876221,98,1.0,1
1598,1,0.0,0,3.1188459396362305,99,1.0,1
1599,1,0.0,0,3.3428564071655273,100,0.0,1
1600,1,0.0,0,6.697639465332031,101,0.0,1
1601,1,1.0,0,5.900697231292725,102,1.0,1
1602,1,1.0,0,3.241851806640625,103,1.0,1
1603,1,1.0,0,2.2718236446380615,104,1.0,1
1604,1,1.0,0,4.152823448181152,105,1.0,1
1605,1,1.0,0,2.16082501411438,106,1.0,1
1606,1,1.0,0,2.937837600708008,107,1.0,1
1607,1,1.0,0,2.773829936981201,108,1.0,1
1608,1,1.0,0,4.1538238525390625,109,1.0,1
1609,1,1.0,0,4.890769958496094,110,1.0,1
1610,1,1.0,0,2.4208216667175293,111,1.0,1
1611,1,1.0,0,3.0888447761535645,112,1.0,1
1612,1,1.0,0,5.422731399536133,113,1.0,1
1613,1,1.0,0,2.8198320865631104,114,0.0,1
1614,1,1.0,0,6.364663600921631,115,0.0,1
1615,1,0.0,0,3.3538570404052734,116,0.0,1
1616,1,1.0,0,4.699784278869629,117,0.0,1
1617,1,0.0,0,3.7278544902801514,118,0.0,1
1618,1,1.0,0,5.441730499267578,119,0.0,1
1619,1,0.0,0,7.516580104827881,120,0.0,1
1620,1,1.0,0,2.8548336029052734,121,1.0,1
1621,1,1.0,0,4.220818519592285,122,1.0,1
1622,1,1.0,0,2.8438332080841064,123,1.0,1
1623,1,1.0,0,2.6248230934143066,124,1.0,1
1624,1,1.0,0,4.246816635131836,125,1.0,1
1625,1,1.0,0,3.1018452644348145,126,1.0,1
1626,1,1.0,0,3.241851806640625,127,1.0,1
1627,1,1.0,0,2.0048270225524902,128,1.0,1
1628,1,1.0,0,3.0748438835144043,129,1.0,1
1629,1,1.0,0,3.302854537963867,130,1.0,1
1630,1,1.0,0,3.9818360805511475,131,1.0,1
1631,1,1.0,0,3.011841058731079,132,1.0,1
1632,1,1.0,0,2.764829635620117,133,1.0,1
1633,1,1.0,0,3.004840850830078,134,1.0,1
1634,1,1.0,0,1.9868272542953491,135,0.0,1
1635,1,1.0,0,2.5988216400146484,136,1.0,1
1636,1,0.0,0,3.974836587905884,137,0.0,1
1637,1,1.0,0,2.6538243293762207,138,1.0,1
1638,1,1.0,0,2.525820255279541,139,1.0,1
1639,1,1.0,0,2.5958216190338135,140,1.0,1
1640,1,1.0,0,3.469862461090088,141,1.0,1
1641,1,1.0,0,2.3528225421905518,142,1.0,1
1642,1,1.0,0,3.58386492729187,143,1.0,1
1643,1,1.0,0,2.5038206577301025,144,1.0,1
1644,1,1.0,0,3.1598479747772217,145,1.0,1
1645,1,1.0,0,2.1318254470825195,146,1.0,1
1646,1,1.0,0,2.706826686859131,147,1.0,1
1647,1,1.0,0,2.962838649749756,148,1.0,1
1648,1,1.0,0,4.104826927185059,149,0.0,1
1649,1,1.0,0,2.1248254776000977,150,1.0,1
1650,1,1.0,0,3.033842086791992,151,1.0,1
1651,1,1.0,0,2.3298230171203613,152,1.0,1
1652,1,1.0,0,2.696826457977295,153,1.0,1
1653,1,1.0,0,3.041842460632324,154,0.0,1
1654,1,1.0,0,3.0488429069519043,155,1.0,1
1655,1,1.0,0,3.4218602180480957,156,0.0,1
1656,1,1.0,0,3.3768582344055176,157,1.0,1
1657,1,1.0,0,2.755829095840454,158,1.0,1
1658,1,0.0,0,4.59779167175293,159,0.0,1
1659,1,1.0,0,3.8268473148345947,160,1.0,1
1660,1,1.0,0,2.256823778152466,161,0.0,1
1661,1,1.0,0,1.9148281812667847,162,1.0,1
1662,1,1.0,0,2.156825065612793,163,1.0,1
1663,1,0.0,0,2.7768301963806152,164,0.0,1
1664,1,1.0,0,3.3468565940856934,165,1.0,1
1665,1,1.0,0,2.2218241691589355,166,1.0,1
1666,1,1.0,0,2.976839542388916,167,1.0,1
1667,1,1.0,0,3.287853956222534,168,1.0,1
1668,1,1.0,0,2.6178226470947266,169,1.0,1
1669,1,1.0,0,3.8808434009552,170,1.0,1
1670,1,1.0,0,3.590864419937134,171,0.0,1
1671,1,1.0,0,2.746828556060791,172,0.0,1
1672,1,0.0,0,1.9748274087905884,173,1.0,1
1673,1,0.0,0,5.422731399536133,174,0.0,1
1674,1,1.0,0,4.069829940795898,175,0.0,1
1675,1,0.0,0,5.2837419509887695,176,0.0,1
1676,1,1.0,0,4.953765869140625,177,1.0,1
1677,1,0.0,0,3.486863136291504,178,0.0,1
1678,1,1.0,0,3.488863468170166,179,1.0,1
1679,1,1.0,0,2.6398236751556396,180,1.0,1
1680,1,1.0,0,2.5718204975128174,181,1.0,1
1681,1,1.0,0,2.690825939178467,182,1.0,1
1682,1,1.0,0,2.6018218994140625,183,1.0,1
1683,1,1.0,0,2.020826816558838,184,1.0,1
1684,1,1.0,0,5.958693027496338,185,1.0,1
1685,1,1.0,0,3.1508474349975586,186,1.0,1
1686,1,1.0,0,2.691826105117798,187,1.0,1
1687,1,1.0,0,2.053826332092285,188,1.0,1
1688,1,1.0,0,2.240823984146118,189,1.0,1
1689,1,0.0,0,2.8148317337036133,190,0.0,1
1690,1,1.0,0,2.716827392578125,191,1.0,1
1691,1,1.0,0,3.441861152648926,192,1.0,1
1692,1,1.0,0,3.1648483276367188,193,1.0,1
1693,1,1.0,0,2.4658212661743164,194,0.0,1
1694,1,1.0,0,4.20382022857666,195,1.0,1
1695,1,1.0,0,2.6618247032165527,196,1.0,1
1696,1,1.0,0,5.370735168457031,197,1.0,1
1697,1,1.0,0,2.733828067779541,198,1.0,1
1698,1,1.0,0,2.164824962615967,199,1.0,1
1699,1,1.0,0,2.8118317127227783,200,0.0,1
1700,1,1.0,0,2.0918259620666504,201,1.0,1
1701,1,1.0,0,3.4208602905273438,202,1.0,1
1702,1,1.0,0,2.995840311050415,203,1.0,1
1703,1,1.0,0,2.6538243293762207,204,1.0,1
1704,1,1.0,0,2.8528337478637695,205,1.0,1
1705,1,1.0,0,2.6138224601745605,206,1.0,1
1706,1,1.0,0,2.3138232231140137,207,1.0,1
1707,1,1.0,0,2.709826946258545,208,1.0,1
1708,1,1.0,0,2.388822078704834,209,1.0,1
1709,1,1.0,0,2.3678224086761475,210,1.0,1
1710,1,1.0,0,3.302854537963867,211,1.0,1
1711,1,1.0,0,2.9238369464874268,212,1.0,1
1712,1,1.0,0,3.195849657058716,213,1.0,1
1713,1,1.0,0,2.752829074859619,214,1.0,1
1714,1,1.0,0,4.63278865814209,215,0.0,1
1715,1,1.0,0,3.8788435459136963,216,1.0,1
1716,1,1.0,0,4.093828201293945,217,1.0,1
1717,1,1.0,0,5.039759635925293,218,0.0,1
1718,1,1.0,0,2.7958309650421143,219,1.0,1
1719,1,1.0,0,3.488863468170166,220,1.0,1
1720,1,1.0,0,2.766829490661621,221,1.0,1
1721,1,1.0,0,2.4978208541870117,222,1.0,1
1722,1,1.0,0,2.4978208541870117,223,1.0,1
1723,1,1.0,0,2.6528244018554688,224,1.0,1
1724,1,1.0,0,3.302854537963867,225,1.0,1
1725,1,1.0,0,3.8948423862457275,226,1.0,1
1726,1,1.0,0,2.7888307571411133,227,1.0,1
1727,1,1.0,0,2.4188218116760254,228,1.0,1
1728,1,1.0,0,1.9918272495269775,229,1.0,1
1729,1,1.0,0,2.4038219451904297,230,1.0,1
1730,1,1.0,0,2.1448252201080322,231,0.0,1
1731,1,1.0,0,4.418804168701172,232,1.0,1
1732,1,1.0,0,3.202849864959717,233,1.0,1
1733,1,1.0,0,3.736853837966919,234,1.0,1
1734,1,1.0,0,2.982839584350586,235,1.0,1
1735,1,1.0,0,2.689826011657715,236,1.0,1
1736,1,1.0,0,3.014841079711914,237,1.0,1
1737,1,1.0,0,3.239851713180542,238,1.0,1
1738,1,1.0,0,2.709826946258545,239,1.0,1
1739,1,1.0,0,4.090827941894531,240,1.0,1
1740,1,1.0,0,2.3728222846984863,241,1.0,1
1741,1,1.0,0,2.538820266723633,242,1.0,1
1742,1,1.0,0,3.034842014312744,243,1.0,1
1743,1,1.0,0,2.988840103149414,244,1.0,1
1744,1,1.0,0,3.0518429279327393,245,1.0,1
1745,1,1.0,0,2.469820976257324,246,1.0,1
1746,1,1.0,0,2.3658223152160645,247,1.0,1
1747,1,1.0,0,2.395822048187256,248,0.0,1
1748,1,1.0,0,2.715827226638794,249,1.0,1
1749,1,1.0,0,3.026841640472412,250,1.0,1
1750,1,1.0,0,2.424821615219116,251,1.0,1
1751,1,1.0,0,1.9858273267745972,252,0.0,1
1752,1,1.0,0,5.112753868103027,253,1.0,1
1753,1,1.0,0,4.728781700134277,254,1.0,1
1754,1,1.0,0,3.9418389797210693,255,1.0,1
1755,1,1.0,0,3.295854330062866,256,1.0,1
1756,1,1.0,0,3.8748438358306885,257,1.0,1
1757,1,1.0,0,2.023826837539673,258,0.0,1
1758,1,1.0,0,4.513797760009766,259,1.0,1
1759,1,1.0,0,5.917695999145508,260,1.0,1
1760,1,1.0,0,2.8138318061828613,261,1.0,1
1761,1,1.0,0,2.8688344955444336,262,1.0,1
1762,1,1.0,0,2.764829635620117,263,1.0,1
1763,1,1.0,0,2.940837860107422,264,1.0,1
1764,1,1.0,0,2.3528225421905518,265,1.0,1
1765,1,1.0,0,2.4118218421936035,266,0.0,1
1766,1,1.0,0,2.6008219718933105,267,1.0,1
1767,1,1.0,0,2.4978208541870117,268,1.0,1
1768,1,1.0,0,3.172848701477051,269,1.0,1
1769,1,1.0,0,2.6128225326538086,270,1.0,1
1770,1,1.0,0,3.519864797592163,271,1.0,1
1771,1,1.0,0,2.946837902069092,272,1.0,1
1772,1,1.0,0,3.237851619720459,273,1.0,1
1773,1,1.0,0,3.1638481616973877,274,1.0,1
1774,1,1.0,0,2.012826919555664,275,1.0,1
1775,1,1.0,0,2.379822254180908,276,0.0,1
1776,1,1.0,0,2.4108219146728516,277,1.0,1
1777,1,1.0,0,2.8478333950042725,278,1.0,1
1778,1,1.0,0,3.265852928161621,279,1.0,1
1779,1,1.0,0,2.430821657180786,280,1.0,1
1780,1,1.0,0,2.8188319206237793,281,1.0,1
1781,1,1.0,0,2.5118205547332764,282,1.0,1
1782,1,1.0,0,2.49082088470459,283,1.0,1
1783,1,1.0,0,2.017826795578003,284,1.0,1
1784,1,1.0,0,2.8808350563049316,285,1.0,1
1785,1,1.0,0,3.3848586082458496,286,1.0,1
1786,1,1.0,0,2.6698250770568848,287,1.0,1
1787,1,1.0,0,2.151825189590454,288,1.0,1
1788,1,1.0,0,2.9388375282287598,289,1.0,1
1789,1,1.0,0,2.95283842086792,290,1.0,1
1790,1,1.0,0,2.255823850631714,291,1.0,1
1791,1,1.0,0,2.5638201236724854,292,0.0,1
1792,1,0.0,0,2.9058361053466797,293,0.0,1
1793,1,1.0,0,2.439821481704712,294,1.0,1
1794,1,1.0,0,2.121825695037842,295,1.0,1
1795,1,1.0,0,3.0888447761535645,296,1.0,1
1796,1,1.0,0,2.5868210792541504,297,0.0,1
1797,1,0.0,0,2.7968311309814453,298,0.0,1
1798,1,1.0,0,2.4058218002319336,299,1.0,1
1799,1,1.0,0,3.3428564071655273,300,1.0,1
1800,1,1.0,0,2.437821388244629,301,1.0,1
1801,1,1.0,0,3.3358561992645264,302,0.0,1
1802,1,1.0,0,3.9148409366607666,303,1.0,1
1803,1,1.0,0,2.5028207302093506,304,0.0,1
1804,1,0.0,0,5.332737922668457,305,0.0,1
1805,1,1.0,0,3.7618520259857178,306,1.0,1
1806,1,1.0,0,3.0988450050354004,307,1.0,1
1807,1,1.0,0,4.1928205490112305,308,1.0,1
1808,1,1.0,0,2.8488335609436035,309,1.0,1
1809,1,1.0,0,3.7428534030914307,310,1.0,1
1810,1,1.0,0,3.737853765487671,311,1.0,1
1811,1,1.0,0,3.775851011276245,312,1.0,1
1812,1,1.0,0,3.8038489818573,313,1.0,1
1813,1,1.0,0,4.723782539367676,314,1.0,1
1814,1,1.0,0,2.350822687149048,315,1.0,1
1815,1,1.0,0,2.332822799682617,316,1.0,1
1816,1,1.0,0,2.332822799682617,317,1.0,1
1817,1,1.0,0,3.244852066040039,318,0.0,1
1818,1,0.0,0,3.441861152648926,319,0.0,1
1819,1,0.0,0,2.3758223056793213,320,1.0,1
1820,1,0.0,0,2.295823335647583,321,0.0,1
1821,1,0.0,0,3.7858502864837646,322,0.0,1
1822,1,1.0,0,2.3078231811523438,323,1.0,1
1823,1,0.0,0,2.1838247776031494,324,0.0,1
1824,1,1.0,0,3.509864330291748,325,1.0,1
1825,1,1.0,0,2.2308242321014404,326,1.0,1
1826,1,1.0,0,3.022841453552246,327,0.0,1
1827,1,1.0,0,2.4738211631774902,328,1.0,1
1828,1,1.0,0,3.1288466453552246,329,0.0,1
1829,1,1.0,0,4.569793701171875,330,0.0,1
1830,1,0.0,0,2.6668248176574707,331,0.0,1
1831,1,0.0,0,2.5798208713531494,332,1.0,1
1832,1,0.0,0,2.1848247051239014,333,1.0,1
1833,1,0.0,0,2.6438238620758057,334,0.0,1
1834,1,0.0,0,2.7768301963806152,335,0.0,1
1835,1,1.0,0,3.8918426036834717,336,0.0,1
1836,1,0.0,0,2.4738211631774902,337,0.0,1
1837,1,0.0,0,4.333810806274414,338,0.0,1
1838,1,0.0,0,2.688826084136963,339,1.0,1
1839,1,0.0,0,3.758852243423462,340,0.0,1
1840,1,1.0,0,6.9376220703125,341,1.0,1
1841,1,1.0,0,3.019841432571411,342,1.0,1
1842,1,1.0,0,3.565866231918335,343,1.0,1
1843,1,1.0,0,2.772830009460449,344,1.0,1
1844,1,1.0,0,3.281853675842285,345,0.0,1
1845,1,0.0,0,2.740828514099121,346,1.0,1
1846,1,0.0,0,2.8338327407836914,347,0.0,1
1847,1,1.0,0,6.566648960113525,348,0.0,1
1848,1,1.0,0,5.96469259262085,349,1.0,1
1849,1,1.0,0,4.8997697830200195,350,1.0,1
1850,1,1.0,0,3.5698659420013428,351,1.0,1
1851,1,1.0,0,3.0658435821533203,352,0.0,1
1852,1,0.0,0,2.772830009460449,353,0.0,1
1853,1,1.0,0,4.606790542602539,354,1.0,1
1854,1,1.0,0,4.15782356262207,355,0.0,1
1855,1,0.0,0,4.584792137145996,356,0.0,1
1856,1,0.0,0,2.2618236541748047,357,1.0,1
1857,1,0.0,0,2.5828208923339844,358,1.0,1
1858,1,0.0,0,2.5908212661743164,359,0.0,1
1859,1,1.0,0,3.671858549118042,360,1.0,1
1860,1,1.0,0,2.3228230476379395,361,1.0,1
1861,1,1.0,0,2.4598212242126465,362,1.0,1
1862,1,1.0,0,5.901697158813477,363,1.0,1
1863,1,1.0,0,3.6838576793670654,364,1.0,1
1864,1,1.0,0,2.963838815689087,365,1.0,1
1865,1,1.0,0,3.649860143661499,366,1.0,1
1866,1,1.0,0,3.01884126663208,367,1.0,1
1867,1,1.0,0,2.8188319206237793,368,1.0,1
1868,1,1.0,0,4.194820404052734,369,1.0,1
1869,1,1.0,0,2.395822048187256,370,1.0,1
1870,1,1.0,0,3.689857244491577,371,1.0,1
1871,1,1.0,0,4.516797065734863,372,1.0,1
1872,1,1.0,0,2.8748345375061035,373,1.0,1
1873,1,1.0,0,3.492863655090332,374,0.0,1
1874,1,0.0,0,2.3748223781585693,375,0.0,1
1875,1,1.0,0,4.443802833557129,376,1.0,1
1876,1,1.0,0,2.6168227195739746,377,1.0,1
1877,1,1.0,0,3.223850965499878,378,1.0,1
1878,1,1.0,0,2.756829261779785,379,1.0,1
1879,1,1.0,0,4.743781089782715,380,0.0,1
1880,1,1.0,0,5.853700637817383,381,1.0,1
1881,1,1.0,0,2.4738211631774902,382,1.0,1
1882,1,1.0,0,2.6698250770568848,383,1.0,1
1883,1,1.0,0,3.732854127883911,384,1.0,1
1884,1,1.0,0,3.58886456489563,385,1.0,1
1885,1,1.0,0,2.015826940536499,386,1.0,1
1886,1,1.0,0,3.1328468322753906,387,1.0,1
1887,1,1.0,0,3.460862159729004,388,1.0,1
1888,1,1.0,0,2.6058220863342285,389,1.0,1
1889,1,1.0,0,2.8718345165252686,390,1.0,1
1890,1,1.0,0,2.95283842086792,391,1.0,1
1891,1,1.0,0,2.8238322734832764,392,1.0,1
1892,1,1.0,0,4.145824432373047,393,0.0,1
1893,1,0.0,0,3.6668589115142822,394,0.0,1
1894,1,1.0,0,4.71478271484375,395,1.0,1
1895,1,0.0,0,2.2128243446350098,396,1.0,1
1896,1,0.0,0,2.4668211936950684,397,0.0,1
1897,1,1.0,0,3.8958423137664795,398,0.0,1
1898,1,1.0,0,6.409660339355469,399,1.0,1
1899,1,1.0,0,4.478799819946289,400,1.0,1
1900,1,1.0,0,4.314811706542969,401,1.0,1
1901,1,1.0,0,3.3018546104431152,402,1.0,1
1902,1,1.0,0,2.013826847076416,403,0.0,1
1903,1,0.0,0,2.2718236446380615,404,0.0,1
1904,1,1.0,0,4.5377960205078125,405,1.0,1
1905,1,1.0,0,3.243851900100708,406,1.0,1
1906,1,1.0,0,3.0898447036743164,407,0.0,1
1907,1,0.0,0,2.296823263168335,408,1.0,1
1908,1,0.0,0,3.3138551712036133,409,1.0,1
1909,1,0.0,0,5.310739517211914,410,0.0,1
1910,1,1.0,0,4.083828926086426,411,1.0,1
1911,1,1.0,0,6.135680198669434,412,1.0,1
1912,1,1.0,0,3.1058454513549805,413,1.0,1
1913,1,1.0,0,3.5698659420013428,414,1.0,1
1914,1,1.0,0,2.520820379257202,415,1.0,1
1915,1,1.0,0,2.750828742980957,416,1.0,1
1916,1,1.0,0,3.7248547077178955,417,1.0,1
1917,1,1.0,0,3.0898447036743164,418,1.0,1
1918,1,1.0,0,2.4138216972351074,419,1.0,1
1919,1,1.0,0,3.3728580474853516,420,0.0,1
1920,1,0.0,0,2.258823871612549,421,0.0,1
1921,1,1.0,0,2.8138318061828613,422,1.0,1
1922,1,1.0,0,5.27274227142334,423,0.0,1
1923,1,0.0,0,2.689826011657715,424,0.0,1
1924,1,0.0,0,2.4988207817077637,425,0.0,1
1925,1,1.0,0,4.780777931213379,426,1.0,1
1926,1,1.0,0,4.312811851501465,427,1.0,1
1927,1,1.0,0,2.379822254180908,428,1.0,1
1928,1,1.0,0,2.6168227195739746,429,1.0,1
1929,1,1.0,0,2.523820400238037,430,1.0,1
1930,1,1.0,0,2.688826084136963,431,1.0,1
1931,1,1.0,0,2.398822069168091,432,1.0,1
1932,1,1.0,0,2.9118363857269287,433,1.0,1
1933,1,1.0,0,2.428821563720703,434,1.0,1
1934,1,1.0,0,2.942837715148926,435,0.0,1
1935,1,1.0,0,3.2928543090820312,436,1.0,1
1936,1,1.0,0,2.732828140258789,437,1.0,1
1937,1,1.0,0,3.272853374481201,438,1.0,1
1938,1,1.0,0,3.0728440284729004,439,1.0,1
1939,1,1.0,0,3.298854351043701,440,1.0,1
1940,1,1.0,0,3.513864517211914,441,1.0,1
1941,1,1.0,0,2.941837787628174,442,0.0,1
1942,1,1.0,0,2.382822275161743,443,1.0,1
1943,1,1.0,0,2.526820421218872,444,1.0,1
1944,1,1.0,0,3.3788580894470215,445,1.0,1
1945,1,1.0,0,3.4388608932495117,446,1.0,1
1946,1,1.0,0,2.385822296142578,447,1.0,1
1947,1,1.0,0,2.0388267040252686,448,1.0,1
1948,1,1.0,0,3.3768582344055176,449,1.0,1
1949,1,1.0,0,2.523820400238037,450,1.0,1
1950,1,1.0,0,3.689857244491577,451,1.0,1
1951,1,1.0,0,2.724827766418457,452,1.0,1
1952,1,1.0,0,2.5748205184936523,453,1.0,1
1953,1,1.0,0,2.683825731277466,454,1.0,1
1954,1,0.0,0,2.5858211517333984,455,0.0,1
1955,1,1.0,0,2.4668211936950684,456,1.0,1
1956,1,1.0,0,2.524820327758789,457,1.0,1
1957,1,1.0,0,2.2138242721557617,458,1.0,1
1958,1,1.0,0,2.5868210792541504,459,1.0,1
1959,1,1.0,0,2.2678236961364746,460,1.0,1
1960,1,1.0,0,3.1908493041992188,461,1.0,1
1961,1,1.0,0,3.236851692199707,462,1.0,1
1962,1,1.0,0,2.726827621459961,463,1.0,1
1963,1,1.0,0,2.747828722000122,464,1.0,1
1964,1,1.0,0,2.8058314323425293,465,1.0,1
1965,1,1.0,0,2.2618236541748047,466,1.0,1
1966,1,1.0,0,2.3608224391937256,467,0.0,1
1967,1,1.0,0,2.994840145111084,468,1.0,1
1968,1,1.0,0,2.0298266410827637,469,0.0,1
1969,1,1.0,0,2.713827133178711,470,1.0,1
1970,1,1.0,0,3.0768442153930664,471,1.0,1
1971,1,1.0,0,3.6248619556427,472,1.0,1
1972,1,1.0,0,2.3648223876953125,473,1.0,1
1973,1,1.0,0,2.2148244380950928,474,1.0,1
1974,1,1.0,0,2.967839002609253,475,1.0,1
1975,1,1.0,0,2.4498214721679688,476,0.0,1
1976,1,1.0,0,3.1598479747772217,477,1.0,1
1977,1,1.0,0,2.692826271057129,478,1.0,1
1978,1,1.0,0,3.489863395690918,479,0.0,1
1979,1,1.0,0,3.246851921081543,480,1.0,1
1980,1,1.0,0,3.0888447761535645,481,1.0,1
1981,1,1.0,0,3.0728440284729004,482,1.0,1
1982,1,1.0,0,5.13475227355957,483,1.0,1
1983,1,1.0,0,2.680825710296631,484,1.0,1
1984,1,1.0,0,2.9228367805480957,485,1.0,1
1985,1,1.0,0,2.4948208332061768,486,1.0,1
1986,1,1.0,0,2.8248324394226074,487,1.0,1
1987,1,1.0,0,3.1228461265563965,488,0.0,1
1988,1,1.0,0,2.5618200302124023,489,1.0,1
1989,1,1.0,0,2.971839189529419,490,1.0,1
1990,1,1.0,0,2.790830612182617,491,1.0,1
1991,1,1.0,0,5.031760215759277,492,1.0,1
1992,1,1.0,0,3.4128599166870117,493,0.0,1
1993,1,1.0,0,3.0748438835144043,494,1.0,1
1994,1,1.0,0,6.057685852050781,495,1.0,1
1995,1,1.0,0,3.1528477668762207,496,1.0,1
1996,1,1.0,0,2.920836925506592,497,1.0,1
1997,1,1.0,0,4.780777931213379,498,1.0,1
1998,1,1.0,0,2.1378254890441895,499,1.0,1
1999,1,1.0,0,2.71982741355896,500,1.0,1
2000,1,1.0,1,2.1738247871398926,1,1.0,1
2001,1,1.0,1,3.9228403568267822,2,1.0,1
2002,1,1.0,1,2.8158318996429443,3,1.0,1
2003,1,1.0,1,4.022832870483398,4,0.0,1
2004,1,1.0,1,4.62278938293457,5,1.0,1
2005,1,1.0,1,3.7728512287139893,6,1.0,1
2006,1,1.0,1,3.1658482551574707,7,1.0,1
2007,1,1.0,1,2.4948208332061768,8,1.0,1
2008,1,0.0,1,4.699784278869629,9,1.0,1
2009,1,1.0,1,6.949621200561523,10,1.0,1
2010,1,0.0,1,3.968837022781372,11,0.0,1
2011,1,1.0,1,3.9148409366607666,12,0.0,1
2012,1,1.0,1,3.1028451919555664,13,1.0,1
2013,1,1.0,1,3.223850965499878,14,1.0,1
2014,1,1.0,1,5.097755432128906,15,1.0,1
2015,1,0.0,1,1.8998284339904785,16,0.0,1
2016,1,1.0,1,2.393822193145752,17,1.0,1
2017,1,1.0,1,2.758829116821289,18,1.0,1
2018,1,1.0,1,4.706783294677734,19,1.0,1
2019,1,1.0,1,3.1298465728759766,20,0.0,1
2020,1,0.0,1,4.776778221130371,21,1.0,1
2021,1,1.0,1,2.936837673187256,22,1.0,1
2022,1,0.0,1,2.728827953338623,23,0.0,1
2023,1,0.0,1,2.4048218727111816,24,1.0,1
2024,1,0.0,1,5.253744125366211,25,1.0,1
2025,1,0.0,1,3.8138482570648193,26,1.0,1
2026,1,0.0,1,2.9028358459472656,27,0.0,1
2027,1,0.0,1,3.1588478088378906,28,0.0,1
2028,1,1.0,1,2.5168204307556152,29,1.0,1
2029,1,1.0,1,3.1038453578948975,30,0.0,1
2030,1,1.0,1,5.196747779846191,31,0.0,1
2031,1,0.0,1,3.452861785888672,32,1.0,1
2032,1,0.0,1,2.2758235931396484,33,0.0,1
2033,1,1.0,1,4.385807037353516,34,0.0,1
2034,1,1.0,1,5.6907124519348145,35,1.0,1
2035,1,0.0,1,2.0328266620635986,36,1.0,1
2036,1,1.0,1,5.9876909255981445,37,0.0,1
2037,1,0.0,1,1.9788273572921753,38,0.0,1
2038,1,1.0,1,5.362735748291016,39,0.0,1
2039,1,0.0,1,5.7327094078063965,40,0.0,1
2040,1,0.0,1,3.6428606510162354,41,0.0,1
2041,1,0.0,1,3.1318466663360596,42,0.0,1
2042,1,1.0,1,3.992835283279419,43,0.0,1
2043,1,0.0,1,6.235672950744629,44,1.0,1
2044,1,0.0,1,2.933837413787842,45,1.0,1
2045,1,0.0,1,2.2278242111206055,46,0.0,1
2046,1,0.0,1,2.4648211002349854,47,1.0,1
2047,1,0.0,1,2.5118205547332764,48,1.0,1
2048,1,0.0,1,2.5578198432922363,49,1.0,1
2049,1,0.0,1,2.8258323669433594,50,0.0,1
2050,1,0.0,1,2.4938206672668457,51,0.0,1
2051,1,0.0,1,2.1798248291015625,52,0.0,1
2052,1,0.0,1,3.1018452644348145,53,0.0,1
2053,1,1.0,1,4.992762565612793,54,1.0,1
2054,1,1.0,1,3.3898587226867676,55,1.0,1
2055,1,1.0,1,2.931837320327759,56,1.0,1
2056,1,1.0,1,3.6188623905181885,57,0.0,1
2057,1,1.0,1,2.971839189529419,58,1.0,1
2058,1,1.0,1,3.225851058959961,59,1.0,1
2059,1,1.0,1,2.348822593688965,60,0.0,1
2060,1,1.0,1,5.356736183166504,61,1.0,1
2061,1,1.0,1,2.4048218727111816,62,1.0,1
2062,1,1.0,1,3.268853187561035,63,1.0,1
2063,1,1.0,1,2.3608224391937256,64,1.0,1
2064,1,1.0,1,4.169822692871094,65,1.0,1
2065,1,1.0,1,2.8828349113464355,66,1.0,1
2066,1,1.0,1,3.235851526260376,67,0.0,1
2067,1,1.0,1,2.6718251705169678,68,1.0,1
2068,1,1.0,1,5.048758506774902,69,0.0,1
2069,1,0.0,1,4.621789932250977,70,1.0,1
2070,1,1.0,1,3.498863697052002,71,1.0,1
2071,1,0.0,1,3.3288559913635254,72,0.0,1
2072,1,1.0,1,4.228817939758301,73,0.0,1
2073,1,1.0,1,4.441802978515625,74,1.0,1
2074,1,1.0,1,2.5908212661743164,75,1.0,1
2075,1,1.0,1,4.401805877685547,76,1.0,1
2076,1,1.0,1,2.240823984146118,77,1.0,1
2077,1,1.0,1,2.384822130203247,78,1.0,1
2078,1,1.0,1,4.407805442810059,79,0.0,1
2079,1,1.0,1,5.243744850158691,80,1.0,1
2080,1,1.0,1,2.5788207054138184,81,1.0,1
2081,1,1.0,1,2.8228321075439453,82,1.0,1
2082,1,1.0,1,2.5118205547332764,83,0.0,1
2083,1,1.0,1,4.445802688598633,84,0.0,1
2084,1,0.0,1,5.977691650390625,85,1.0,1
2085,1,0.0,1,1.9388278722763062,86,0.0,1
2086,1,1.0,1,4.784777641296387,87,0.0,1
2087,1,0.0,1,4.021833419799805,88,0.0,1
2088,1,0.0,1,2.3248229026794434,89,0.0,1
2089,1,0.0,1,3.1178460121154785,90,1.0,1
2090,1,0.0,1,2.745828628540039,91,1.0,1
2091,1,0.0,1,2.8908352851867676,92,0.0,1
2092,1,0.0,1,2.746828556060791,93,1.0,1
2093,1,0.0,1,1.8488290309906006,94,1.0,1
2094,1,0.0,1,3.0638434886932373,95,1.0,1
2095,1,0.0,1,2.704826831817627,96,0.0,1
2096,1,0.0,1,3.49086332321167,97,0.0,1
2097,1,0.0,1,2.303823232650757,98,1.0,1
2098,1,0.0,1,2.0428266525268555,99,0.0,1
2099,1,0.0,1,2.02182674407959,100,1.0,1
2100,1,0.0,1,2.0438265800476074,101,1.0,1
2101,1,0.0,1,2.3668224811553955,102,0.0,1
2102,1,0.0,1,2.0488264560699463,103,0.0,1
2103,1,0.0,1,2.8928356170654297,104,1.0,1
2104,1,0.0,1,2.1388254165649414,105,0.0,1
2105,1,0.0,1,2.8668341636657715,106,0.0,1
2106,1,0.0,1,4.546794891357422,107,1.0,1
2107,1,0.0,1,3.021841526031494,108,1.0,1
2108,1,0.0,1,2.379822254180908,109,0.0,1
2109,1,0.0,1,6.047686576843262,110,1.0,1
2110,1,0.0,1,2.4218215942382812,111,0.0,1
2111,1,0.0,1,4.402805328369141,112,0.0,1
2112,1,1.0,1,6.3286662101745605,113,0.0,1
2113,1,0.0,1,8.088539123535156,114,0.0,1
2114,1,1.0,1,7.9075517654418945,115,1.0,1
2115,1,1.0,1,4.805776596069336,116,0.0,1
2116,1,0.0,1,4.755780220031738,117,0.0,1
2117,1,1.0,1,3.8268473148345947,118,1.0,1
2118,1,1.0,1,3.208850383758545,119,1.0,1
2119,1,1.0,1,2.8708343505859375,120,1.0,1
2120,1,0.0,1,2.350822687149048,121,1.0,1
2121,1,0.0,1,4.006834030151367,122,0.0,1
2122,1,1.0,1,1.850829005241394,123,1.0,1
2123,1,1.0,1,4.112826347351074,124,1.0,1
2124,1,1.0,1,3.472862720489502,125,1.0,1
2125,1,1.0,1,3.0438425540924072,126,1.0,1
2126,1,1.0,1,2.939837694168091,127,0.0,1
2127,1,1.0,1,2.8698344230651855,128,1.0,1
2128,1,1.0,1,2.9258370399475098,129,1.0,1
2129,1,1.0,1,3.011841058731079,130,1.0,1
2130,1,1.0,1,2.2708237171173096,131,1.0,1
2131,1,1.0,1,2.5858211517333984,132,1.0,1
2132,1,1.0,1,2.0358266830444336,133,0.0,1
2133,1,0.0,1,5.156750679016113,134,0.0,1
2134,1,0.0,1,4.456801414489746,135,1.0,1
2135,1,0.0,1,2.2228243350982666,136,0.0,1
2136,1,0.0,1,4.516797065734863,137,0.0,1
2137,1,1.0,1,2.6788253784179688,138,1.0,1
2138,1,0.0,1,2.8188319206237793,139,0.0,1
2139,1,1.0,1,3.1518476009368896,140,1.0,1
2140,1,1.0,1,3.671858549118042,141,0.0,1
2141,1,1.0,1,2.4958207607269287,142,0.0,1
2142,1,1.0,1,5.3227386474609375,143,1.0,1
2143,1,1.0,1,3.0878446102142334,144,1.0,1
2144,1,1.0,1,3.252852439880371,145,0.0,1
2145,1,1.0,1,5.217746734619141,146,1.0,1
2146,1,1.0,1,3.3948588371276855,147,1.0,1
2147,1,1.0,1,2.8238322734832764,148,1.0,1
2148,1,1.0,1,3.6338613033294678,149,1.0,1
2149,1,1.0,1,2.4978208541870117,150,1.0,1
2150,1,1.0,1,2.6108222007751465,151,0.0,1
2151,1,1.0,1,2.483820915222168,152,0.0,1
2152,1,1.0,1,4.50579833984375,153,1.0,1
2153,1,1.0,1,2.959838628768921,154,1.0,1
2154,1,1.0,1,3.013841152191162,155,1.0,1
2155,1,1.0,1,2.3618226051330566,156,1.0,1
2156,1,1.0,1,2.4198217391967773,157,1.0,1
2157,1,1.0,1,3.030841827392578,158,1.0,1
2158,1,1.0,1,2.677825450897217,159,0.0,1
2159,1,1.0,1,4.580792427062988,160,0.0,1
2160,1,1.0,1,5.670713901519775,161,1.0,1
2161,1,1.0,1,2.742828369140625,162,1.0,1
2162,1,1.0,1,3.245851993560791,163,0.0,1
2163,1,0.0,1,3.3218555450439453,164,1.0,1
2164,1,0.0,1,2.5998218059539795,165,1.0,1
2165,1,0.0,1,2.3138232231140137,166,1.0,1
2166,1,0.0,1,2.6598246097564697,167,1.0,1
2167,1,0.0,1,3.927839994430542,168,0.0,1
2168,1,0.0,1,3.233851432800293,169,0.0,1
2169,1,1.0,1,2.385822296142578,170,1.0,1
2170,1,1.0,1,3.289854049682617,171,1.0,1
2171,1,1.0,1,2.8818349838256836,172,1.0,1
2172,1,1.0,1,2.424821615219116,173,1.0,1
2173,1,1.0,1,3.4228601455688477,174,0.0,1
2174,1,1.0,1,5.464728355407715,175,1.0,1
2175,1,1.0,1,2.3238229751586914,176,0.0,1
2176,1,1.0,1,4.354808807373047,177,0.0,1
2177,1,0.0,1,2.748828887939453,178,0.0,1
2178,1,0.0,1,2.3628225326538086,179,0.0,1
2179,1,0.0,1,4.380806922912598,180,0.0,1
2180,1,1.0,1,3.1028451919555664,181,1.0,1
2181,1,1.0,1,3.8308470249176025,182,0.0,1
2182,1,0.0,1,3.1548476219177246,183,0.0,1
2183,1,1.0,1,4.324810981750488,184,1.0,1
2184,1,1.0,1,2.8358328342437744,185,1.0,1
2185,1,1.0,1,2.6148223876953125,186,1.0,1
2186,1,1.0,1,3.467862367630005,187,1.0,1
2187,1,1.0,1,2.3348228931427,188,0.0,1
2188,1,1.0,1,4.29481315612793,189,1.0,1
2189,1,1.0,1,2.3078231811523438,190,1.0,1
2190,1,1.0,1,3.219850778579712,191,0.0,1
2191,1,1.0,1,5.676713466644287,192,1.0,1
2192,1,1.0,1,2.738828182220459,193,1.0,1
2193,1,1.0,1,3.1258463859558105,194,0.0,1
2194,1,0.0,1,1.7628294229507446,195,0.0,1
2195,1,1.0,1,4.304812431335449,196,0.0,1
2196,1,0.0,1,5.659714698791504,197,0.0,1
2197,1,1.0,1,3.5938642024993896,198,0.0,1
2198,1,0.0,1,3.1678483486175537,199,0.0,1
2199,1,1.0,1,5.178749084472656,200,1.0,1
2200,1,1.0,1,2.8218321800231934,201,1.0,1
2201,1,1.0,1,2.153825283050537,202,1.0,1
2202,1,1.0,1,2.426821708679199,203,0.0,1
2203,1,1.0,1,4.698783874511719,204,0.0,1
2204,1,1.0,1,2.937837600708008,205,1.0,1
2205,1,1.0,1,2.6048221588134766,206,1.0,1
2206,1,1.0,1,2.3548226356506348,207,1.0,1
2207,1,1.0,1,2.424821615219116,208,1.0,1
2208,1,1.0,1,2.8578338623046875,209,1.0,1
2209,1,1.0,1,3.3588571548461914,210,1.0,1
2210,1,1.0,1,2.8158318996429443,211,1.0,1
2211,1,1.0,1,2.0768260955810547,212,1.0,1
2212,1,1.0,1,2.208824396133423,213,1.0,1
2213,1,1.0,1,2.8368330001831055,214,1.0,1
2214,1,1.0,1,3.217850685119629,215,1.0,1
2215,1,1.0,1,2.2768235206604004,216,1.0,1
2216,1,1.0,1,2.3688223361968994,217,0.0,1
2217,1,0.0,1,6.111681938171387,218,1.0,1
2218,1,0.0,1,2.349822521209717,219,0.0,1
2219,1,1.0,1,5.1527509689331055,220,0.0,1
2220,1,0.0,1,3.536865711212158,221,0.0,1
2221,1,1.0,1,5.620717525482178,222,0.0,1
2222,1,1.0,1,3.279853582382202,223,1.0,1
2223,1,1.0,1,4.262815475463867,224,0.0,1
2224,1,0.0,1,3.010840892791748,225,0.0,1
2225,1,1.0,1,2.778830051422119,226,1.0,1
2226,1,1.0,1,2.790830612182617,227,0.0,1
2227,1,1.0,1,3.0618433952331543,228,0.0,1
2228,1,1.0,1,2.8228321075439453,229,1.0,1
2229,1,1.0,1,3.5978639125823975,230,1.0,1
2230,1,1.0,1,2.8068313598632812,231,0.0,1
2231,1,0.0,1,5.242744445800781,232,0.0,1
2232,1,1.0,1,3.6218621730804443,233,1.0,1
2233,1,1.0,1,3.4218602180480957,234,1.0,1
2234,1,1.0,1,2.5668201446533203,235,0.0,1
2235,1,1.0,1,2.7928309440612793,236,1.0,1
2236,1,1.0,1,2.239824056625366,237,0.0,1
2237,1,1.0,1,2.730827808380127,238,1.0,1
2238,1,1.0,1,3.974836587905884,239,1.0,1
2239,1,1.0,1,2.5898213386535645,240,1.0,1
2240,1,1.0,1,2.960838794708252,241,1.0,1
2241,1,1.0,1,3.513864517211914,242,1.0,1
2242,1,1.0,1,3.535865545272827,243,1.0,1
2243,1,1.0,1,3.1428470611572266,244,0.0,1
2244,1,1.0,1,3.516864776611328,245,1.0,1
2245,1,1.0,1,2.724827766418457,246,1.0,1
2246,1,1.0,1,2.8028311729431152,247,0.0,1
2247,1,1.0,1,4.2348175048828125,248,0.0,1
2248,1,1.0,1,3.7728512287139893,249,1.0,1
2249,1,1.0,1,2.8318326473236084,250,0.0,1
2250,1,0.0,1,4.145824432373047,251,0.0,1
2251,1,0.0,1,2.2168242931365967,252,0.0,1
2252,1,1.0,1,2.342822790145874,253,0.0,1
2253,1,0.0,1,4.493799209594727,254,0.0,1
2254,1,1.0,1,3.3588571548461914,255,1.0,1
2255,1,0.0,1,4.194820404052734,256,0.0,1
2256,1,1.0,1,3.455861806869507,257,1.0,1
2257,1,1.0,1,3.965837240219116,258,0.0,1
2258,1,1.0,1,3.671858549118042,259,1.0,1
2259,1,1.0,1,3.225851058959961,260,1.0,1
2260,1,1.0,1,4.864771842956543,261,0.0,1
2261,1,1.0,1,3.0588431358337402,262,0.0,1
2262,1,0.0,1,2.8698344230651855,263,0.0,1
2263,1,1.0,1,6.404660701751709,264,1.0,1
2264,1,1.0,1,3.536865711212158,265,1.0,1
2265,1,1.0,1,3.3288559913635254,266,1.0,1
2266,1,1.0,1,2.8068313598632812,267,0.0,1
2267,1,1.0,1,3.9218404293060303,268,1.0,1
2268,1,1.0,1,2.706826686859131,269,0.0,1
2269,1,1.0,1,2.0008270740509033,270,1.0,1
2270,1,1.0,1,2.348822593688965,271,1.0,1
2271,1,1.0,1,2.711827039718628,272,1.0,1
2272,1,1.0,1,2.246824026107788,273,1.0,1
2273,1,1.0,1,2.435821533203125,274,1.0,1
2274,1,1.0,1,2.3218231201171875,275,0.0,1
2275,1,1.0,1,3.5998637676239014,276,0.0,1
2276,1,0.0,1,3.499863862991333,277,1.0,1
2277,1,0.0,1,3.0678436756134033,278,0.0,1
2278,1,0.0,1,3.4098596572875977,279,1.0,1
2279,1,1.0,1,3.034842014312744,280,0.0,1
2280,1,0.0,1,2.1278254985809326,281,0.0,1
2281,1,1.0,1,4.041831970214844,282,1.0,1
2282,1,1.0,1,4.34181022644043,283,1.0,1
2283,1,1.0,1,3.1528477668762207,284,1.0,1
2284,1,1.0,1,2.4738211631774902,285,1.0,1
2285,1,1.0,1,2.6178226470947266,286,1.0,1
2286,1,1.0,1,2.30582332611084,287,1.0,1
2287,1,1.0,1,3.3398563861846924,288,1.0,1
2288,1,1.0,1,5.530723571777344,289,1.0,1
2289,1,1.0,1,2.1388254165649414,290,0.0,1
2290,1,1.0,1,3.8148481845855713,291,1.0,1
2291,1,1.0,1,3.6378610134124756,292,1.0,1
2292,1,1.0,1,3.0988450050354004,293,0.0,1
2293,1,1.0,1,5.189748764038086,294,1.0,1
2294,1,1.0,1,2.920836925506592,295,1.0,1
2295,1,1.0,1,3.820847749710083,296,0.0,1
2296,1,1.0,1,2.725827693939209,297,1.0,1
2297,1,1.0,1,2.707826852798462,298,0.0,1
2298,1,0.0,1,4.558794021606445,299,0.0,1
2299,1,0.0,1,3.471862554550171,300,0.0,1
2300,1,1.0,1,4.309812545776367,301,1.0,1
2301,1,1.0,1,5.285741806030273,302,0.0,1
2302,1,1.0,1,3.626861810684204,303,1.0,1
2303,1,1.0,1,2.30582332611084,304,1.0,1
2304,1,1.0,1,2.340822696685791,305,1.0,1
2305,1,1.0,1,2.0358266830444336,306,1.0,1
2306,1,1.0,1,3.3538570404052734,307,1.0,1
2307,1,1.0,1,2.3728222846984863,308,1.0,1
2308,1,1.0,1,4.055830955505371,309,0.0,1
2309,1,1.0,1,5.509725570678711,310,0.0,1
2310,1,1.0,1,3.816848039627075,311,1.0,1
2311,1,1.0,1,5.136752128601074,312,0.0,1
2312,1,1.0,1,7.156606197357178,313,0.0,1
2313,1,1.0,1,5.141752243041992,314,0.0,1
2314,1,0.0,1,4.626789093017578,315,0.0,1
2315,1,1.0,1,3.263852834701538,316,1.0,1
2316,1,1.0,1,2.764829635620117,317,0.0,1
2317,1,1.0,1,4.580792427062988,318,1.0,1
2318,1,1.0,1,3.3678576946258545,319,1.0,1
2319,1,1.0,1,4.023833274841309,320,1.0,1
2320,1,1.0,1,2.757829189300537,321,1.0,1
2321,1,0.0,1,3.4188599586486816,322,0.0,1
2322,1,1.0,1,3.6588594913482666,323,0.0,1
2323,1,1.0,1,2.685825824737549,324,0.0,1
2324,1,1.0,1,3.7838504314422607,325,1.0,1
2325,1,1.0,1,3.460862159729004,326,0.0,1
2326,1,1.0,1,3.1528477668762207,327,1.0,1
2327,1,1.0,1,2.1338253021240234,328,0.0,1
2328,1,1.0,1,2.942837715148926,329,1.0,1
2329,1,1.0,1,2.2648236751556396,330,1.0,1
2330,1,1.0,1,3.3298559188842773,331,1.0,1
2331,1,1.0,1,3.0798442363739014,332,0.0,1
2332,1,1.0,1,2.8698344230651855,333,1.0,1
2333,1,1.0,1,2.6068220138549805,334,0.0,1
2334,1,1.0,1,5.425731658935547,335,1.0,1
2335,1,1.0,1,2.5858211517333984,336,1.0,1
2336,1,1.0,1,4.461801528930664,337,1.0,1
2337,1,1.0,1,3.283853769302368,338,0.0,1
2338,1,1.0,1,2.8358328342437744,339,1.0,1
2339,1,1.0,1,4.209819793701172,340,1.0,1
2340,1,1.0,1,2.19582462310791,341,0.0,1
2341,1,0.0,1,6.299668312072754,342,1.0,1
2342,1,0.0,1,2.5078206062316895,343,0.0,1
2343,1,0.0,1,4.786777496337891,344,1.0,1
2344,1,0.0,1,2.381822109222412,345,1.0,1
2345,1,0.0,1,3.9638373851776123,346,1.0,1
2346,1,0.0,1,1.9418278932571411,347,0.0,1
2347,1,0.0,1,3.7498528957366943,348,1.0,1
2348,1,0.0,1,2.0338265895843506,349,0.0,1
2349,1,0.0,1,4.54079532623291,350,0.0,1
2350,1,1.0,1,4.8747711181640625,351,1.0,1
2351,1,1.0,1,3.0568432807922363,352,0.0,1
2352,1,0.0,1,3.989835500717163,353,1.0,1
2353,1,0.0,1,2.735828161239624,354,0.0,1
2354,1,0.0,1,4.767779350280762,355,0.0,1
2355,1,0.0,1,5.91869592666626,356,0.0,1
2356,1,1.0,1,3.3658576011657715,357,0.0,1
2357,1,1.0,1,5.5147247314453125,358,0.0,1
2358,1,0.0,1,4.569793701171875,359,0.0,1
2359,1,1.0,1,4.588791847229004,360,0.0,1
2360,1,0.0,1,3.3688578605651855,361,0.0,1
2361,1,0.0,1,2.147825241088867,362,0.0,1
2362,1,0.0,1,5.257743835449219,363,0.0,1
2363,1,0.0,1,2.6748251914978027,364,0.0,1
2364,1,1.0,1,5.885698318481445,365,0.0,1
2365,1,0.0,1,2.434821605682373,366,1.0,1
2366,1,0.0,1,3.027841806411743,367,0.0,1
2367,1,0.0,1,3.3148550987243652,368,0.0,1
2368,1,1.0,1,4.661787033081055,369,1.0,1
2369,1,1.0,1,3.1588478088378906,370,1.0,1
2370,1,1.0,1,2.728827953338623,371,1.0,1
2371,1,0.0,1,3.5758655071258545,372,1.0,1
2372,1,1.0,1,6.757635116577148,373,1.0,1
2373,1,0.0,1,3.1428470611572266,374,0.0,1
2374,1,1.0,1,2.673825263977051,375,0.0,1
2375,1,1.0,1,2.990839958190918,376,0.0,1
2376,1,0.0,1,2.785830497741699,377,0.0,1
2377,1,1.0,1,2.960838794708252,378,1.0,1
2378,1,1.0,1,5.259743690490723,379,1.0,1
2379,1,1.0,1,6.63564395904541,380,1.0,1
2380,1,1.0,1,2.9238369464874268,381,1.0,1
2381,1,1.0,1,2.8098316192626953,382,1.0,1
2382,1,1.0,1,3.3518569469451904,383,1.0,1
2383,1,1.0,1,3.4318606853485107,384,1.0,1
2384,1,1.0,1,2.916836738586426,385,0.0,1
2385,1,1.0,1,2.7878305912017822,386,1.0,1
2386,1,1.0,1,3.7278544902801514,387,1.0,1
2387,1,1.0,1,2.4548213481903076,388,0.0,1
2388,1,0.0,1,3.654859781265259,389,0.0,1
2389,1,1.0,1,2.5678203105926514,390,1.0,1
2390,1,1.0,1,4.661787033081055,391,1.0,1
2391,1,1.0,1,2.790830612182617,392,0.0,1
2392,1,1.0,1,3.008841037750244,393,1.0,1
2393,1,1.0,1,2.427821636199951,394,1.0,1
2394,1,1.0,1,3.501863956451416,395,1.0,1
2395,1,1.0,1,2.8918354511260986,396,1.0,1
2396,1,1.0,1,5.2197465896606445,397,1.0,1
2397,1,1.0,1,2.05682635307312,398,1.0,1
2398,1,1.0,1,2.433821678161621,399,0.0,1
2399,1,1.0,1,3.534865379333496,400,1.0,1
2400,1,1.0,1,2.3138232231140137,401,0.0,1
2401,1,0.0,1,2.73982834815979,402,1.0,1
2402,1,0.0,1,2.5868210792541504,403,0.0,1
2403,1,0.0,1,3.9598376750946045,404,0.0,1
2404,1,1.0,1,3.3208556175231934,405,1.0,1
2405,1,1.0,1,3.4348607063293457,406,0.0,1
2406,1,1.0,1,3.6008636951446533,407,1.0,1
2407,1,1.0,1,3.560866594314575,408,0.0,1
2408,1,1.0,1,5.396733283996582,409,1.0,1
2409,1,1.0,1,2.933837413787842,410,1.0,1
2410,1,1.0,1,3.5968639850616455,411,1.0,1
2411,1,1.0,1,2.5608201026916504,412,1.0,1
2412,1,1.0,1,2.728827953338623,413,1.0,1
2413,1,1.0,1,3.672858476638794,414,0.0,1
2414,1,1.0,1,3.011841058731079,415,0.0,1
2415,1,0.0,1,5.360735893249512,416,1.0,1
2416,1,0.0,1,1.9808273315429688,417,0.0,1
2417,1,0.0,1,2.6398236751556396,418,0.0,1
2418,1,1.0,1,5.010761260986328,419,0.0,1
2419,1,1.0,1,3.8718440532684326,420,1.0,1
2420,1,1.0,1,4.132824897766113,421,1.0,1
2421,1,1.0,1,3.476862907409668,422,0.0,1
2422,1,1.0,1,2.5788207054138184,423,1.0,1
2423,1,1.0,1,2.117825508117676,424,1.0,1
2424,1,1.0,1,3.227851152420044,425,1.0,1
2425,1,1.0,1,4.117826461791992,426,1.0,1
2426,1,1.0,1,2.5758206844329834,427,1.0,1
2427,1,1.0,1,2.285823345184326,428,0.0,1
2428,1,1.0,1,2.3598225116729736,429,1.0,1
2429,1,0.0,1,2.4258217811584473,430,1.0,1
2430,1,1.0,1,3.867844343185425,431,1.0,1
2431,1,1.0,1,3.2998545169830322,432,0.0,1
2432,1,0.0,1,3.760852098464966,433,1.0,1
2433,1,0.0,1,2.384822130203247,434,0.0,1
2434,1,0.0,1,2.8748345375061035,435,0.0,1
2435,1,0.0,1,3.3358561992645264,436,0.0,1
2436,1,1.0,1,4.271815299987793,437,1.0,1
2437,1,1.0,1,3.625861883163452,438,0.0,1
2438,1,1.0,1,2.5408201217651367,439,1.0,1
2439,1,1.0,1,2.8518335819244385,440,0.0,1
2440,1,1.0,1,6.743636131286621,441,1.0,1
2441,1,1.0,1,2.5188205242156982,442,0.0,1
2442,1,1.0,1,3.3128552436828613,443,1.0,1
2443,1,1.0,1,3.201849937438965,444,0.0,1
2444,1,1.0,1,5.012761116027832,445,1.0,1
2445,1,1.0,1,2.698826313018799,446,0.0,1
2446,1,0.0,1,3.8538453578948975,447,0.0,1
2447,1,1.0,1,3.695856809616089,448,0.0,1
2448,1,1.0,1,3.7208549976348877,449,0.0,1
2449,1,0.0,1,3.797849416732788,450,0.0,1
2450,1,0.0,1,3.7028563022613525,451,1.0,1
2451,1,0.0,1,2.2808234691619873,452,0.0,1
2452,1,0.0,1,3.1048455238342285,453,0.0,1
2453,1,1.0,1,2.7998311519622803,454,1.0,1
