,subj_idx,response,split_by,rt,trial,feedback,samp
0,0,1.0,0,1.9998810291290283,1,0.0,1
1,0,0.0,0,1.502866506576538,2,0.0,1
2,0,0.0,0,1.6908667087554932,3,0.0,1
3,0,0.0,0,1.4278675317764282,4,1.0,1
4,0,1.0,0,2.0438830852508545,5,1.0,1
5,0,0.0,0,1.2108702659606934,6,0.0,1
6,0,1.0,0,1.7578697204589844,7,1.0,1
7,0,1.0,0,1.9798800945281982,8,1.0,1
8,0,1.0,0,1.560865879058838,9,1.0,1
9,0,1.0,0,1.4298675060272217,10,0.0,1
10,0,1.0,0,1.8028719425201416,11,1.0,1
11,0,1.0,0,1.7878711223602295,12,1.0,1
12,0,1.0,0,1.7438690662384033,13,0.0,1
13,0,0.0,0,2.171889066696167,14,0.0,1
14,0,0.0,0,1.2978692054748535,15,0.0,1
15,0,0.0,0,1.880875587463379,16,0.0,1
16,0,1.0,0,1.418867588043213,17,1.0,1
17,0,1.0,0,1.657865047454834,18,1.0,1
18,0,1.0,0,1.9848804473876953,19,1.0,1
19,0,1.0,0,1.8718750476837158,20,1.0,1
20,0,0.0,0,2.0848851203918457,21,0.0,1
21,0,1.0,0,1.2508697509765625,22,1.0,1
22,0,1.0,0,1.1248713731765747,23,1.0,1
23,0,1.0,0,1.4458673000335693,24,0.0,1
24,0,1.0,0,1.1718708276748657,25,1.0,1
25,0,1.0,0,2.229891777038574,26,1.0,1
26,0,1.0,0,2.0178818702697754,27,0.0,1
27,0,0.0,0,1.4958666563034058,28,0.0,1
28,0,1.0,0,2.149888038635254,29,0.0,1
29,0,1.0,0,1.594865322113037,30,0.0,1
30,0,0.0,0,1.2178702354431152,31,0.0,1
31,0,0.0,0,1.6138651371002197,32,1.0,1
32,0,0.0,0,1.413867712020874,33,1.0,1
33,0,0.0,0,1.4958666563034058,34,0.0,1
34,0,1.0,0,1.8058719635009766,35,0.0,1
35,0,1.0,0,1.5738656520843506,36,1.0,1
36,0,0.0,0,1.671865701675415,37,0.0,1
37,0,1.0,0,1.4848668575286865,38,1.0,1
38,0,1.0,0,1.325868844985962,39,0.0,1
39,0,0.0,0,2.4669029712677,40,0.0,1
40,0,0.0,0,1.479866862297058,41,0.0,1
41,0,0.0,0,1.184870719909668,42,1.0,1
42,0,0.0,0,1.4248676300048828,43,0.0,1
43,0,1.0,0,1.7268683910369873,44,0.0,1
44,0,1.0,0,1.935878038406372,45,1.0,1
45,0,0.0,0,2.2708938121795654,46,0.0,1
46,0,0.0,0,1.3108689785003662,47,1.0,1
47,0,1.0,0,2.176889419555664,48,0.0,1
48,0,0.0,0,1.671865701675415,49,0.0,1
49,0,0.0,0,1.5658657550811768,50,0.0,1
50,0,0.0,0,2.2448925971984863,51,0.0,1
51,0,1.0,0,1.4738669395446777,52,0.0,1
52,0,0.0,0,1.656865119934082,53,0.0,1
53,0,1.0,0,1.7878711223602295,54,0.0,1
54,0,0.0,0,1.5148663520812988,55,0.0,1
55,0,0.0,0,1.0328725576400757,56,0.0,1
56,0,0.0,0,1.4158676862716675,57,0.0,1
57,0,1.0,0,1.888875961303711,58,1.0,1
58,0,1.0,0,1.9768800735473633,59,1.0,1
59,0,1.0,0,1.878875494003296,60,1.0,1
60,0,1.0,0,1.4968667030334473,61,1.0,1
61,0,1.0,0,1.2718695402145386,62,1.0,1
62,0,1.0,0,1.019872784614563,63,1.0,1
63,0,1.0,0,1.5908653736114502,64,1.0,1
64,0,0.0,0,0.997873067855835,65,0.0,1
65,0,1.0,0,1.6078652143478394,66,1.0,1
66,0,1.0,0,1.3848681449890137,67,0.0,1
67,0,1.0,0,2.2788941860198975,68,1.0,1
68,0,1.0,0,1.7458691596984863,69,1.0,1
69,0,1.0,0,1.4158676862716675,70,1.0,1
70,0,1.0,0,1.930877923965454,71,1.0,1
71,0,1.0,0,1.2238701581954956,72,1.0,1
72,0,1.0,0,2.0478832721710205,73,1.0,1
73,0,1.0,0,1.899876356124878,74,1.0,1
74,0,1.0,0,1.9538788795471191,75,1.0,1
75,0,1.0,0,1.91487717628479,76,1.0,1
76,0,1.0,0,1.3508684635162354,77,1.0,1
77,0,1.0,0,1.9788801670074463,78,1.0,1
78,0,1.0,0,2.0848851203918457,79,1.0,1
79,0,1.0,0,1.6958668231964111,80,1.0,1
80,0,1.0,0,1.2398699522018433,81,1.0,1
81,0,1.0,0,1.4568672180175781,82,0.0,1
82,0,0.0,0,1.4818668365478516,83,1.0,1
83,0,0.0,0,1.1768708229064941,84,0.0,1
84,0,0.0,0,1.4378674030303955,85,0.0,1
85,0,0.0,0,1.159870982170105,86,1.0,1
86,0,0.0,0,1.4718669652938843,87,0.0,1
87,0,0.0,0,1.1668708324432373,88,0.0,1
88,0,1.0,0,1.8388736248016357,89,1.0,1
89,0,0.0,0,1.4508671760559082,90,0.0,1
90,0,1.0,0,1.8378734588623047,91,1.0,1
91,0,1.0,0,1.933877944946289,92,1.0,1
92,0,1.0,0,1.667865514755249,93,1.0,1
93,0,1.0,0,1.7288684844970703,94,1.0,1
94,0,1.0,0,2.0768847465515137,95,1.0,1
95,0,0.0,0,2.158888578414917,96,0.0,1
96,0,1.0,0,1.1998704671859741,97,1.0,1
97,0,1.0,0,2.205890655517578,98,0.0,1
98,0,0.0,0,1.0758720636367798,99,0.0,1
99,0,1.0,0,2.2968950271606445,100,1.0,1
100,0,1.0,0,2.0838849544525146,101,1.0,1
101,0,0.0,0,2.0258822441101074,102,0.0,1
102,0,1.0,0,1.226870059967041,103,0.0,1
103,0,0.0,0,1.3768682479858398,104,0.0,1
104,0,1.0,0,1.6118651628494263,105,1.0,1
105,0,1.0,0,1.8028719425201416,106,0.0,1
106,0,1.0,0,1.1278713941574097,107,1.0,1
107,0,1.0,0,1.2758694887161255,108,1.0,1
108,0,0.0,0,1.5938653945922852,109,1.0,1
109,0,0.0,0,1.9428784847259521,110,0.0,1
110,0,1.0,0,1.916877269744873,111,1.0,1
111,0,0.0,0,1.937878131866455,112,0.0,1
112,0,1.0,0,1.37086820602417,113,1.0,1
113,0,1.0,0,2.0678842067718506,114,1.0,1
114,0,0.0,0,1.685866355895996,115,1.0,1
115,0,0.0,0,1.4768669605255127,116,0.0,1
116,0,1.0,0,1.163870930671692,117,1.0,1
117,0,1.0,0,1.1458711624145508,118,1.0,1
118,0,1.0,0,1.5818655490875244,119,0.0,1
119,0,0.0,0,1.3308687210083008,120,0.0,1
120,0,1.0,0,1.2848694324493408,121,1.0,1
121,0,1.0,0,1.5158663988113403,122,1.0,1
122,0,1.0,0,2.1078860759735107,123,0.0,1
123,0,1.0,0,1.9898805618286133,124,1.0,1
124,0,0.0,0,2.0428831577301025,125,0.0,1
125,0,1.0,0,1.7098674774169922,126,1.0,1
126,0,0.0,0,1.8298730850219727,127,0.0,1
127,0,1.0,0,1.409867763519287,128,0.0,1
128,0,0.0,0,1.2968692779541016,129,0.0,1
129,0,1.0,0,2.0788848400115967,130,1.0,1
130,0,1.0,0,2.3698983192443848,131,1.0,1
131,0,0.0,0,1.9928808212280273,132,0.0,1
132,0,1.0,0,1.658865213394165,133,1.0,1
133,0,1.0,0,1.4408674240112305,134,1.0,1
134,0,1.0,0,1.663865327835083,135,0.0,1
135,0,0.0,0,1.90787672996521,136,0.0,1
136,0,0.0,0,1.3808681964874268,137,0.0,1
137,0,0.0,0,1.9428784847259521,138,0.0,1
138,0,0.0,0,1.9648795127868652,139,0.0,1
139,0,1.0,0,1.8088722229003906,140,1.0,1
140,0,1.0,0,2.0388829708099365,141,1.0,1
141,0,1.0,0,1.4078677892684937,142,1.0,1
142,0,0.0,0,2.182889699935913,143,0.0,1
143,0,1.0,0,1.487866759300232,144,1.0,1
144,0,1.0,0,1.5708656311035156,145,1.0,1
145,0,1.0,0,2.12088680267334,146,1.0,1
146,0,1.0,0,1.9708797931671143,147,0.0,1
147,0,1.0,0,2.2398922443389893,148,1.0,1
148,0,0.0,0,2.1008858680725098,149,1.0,1
149,0,1.0,0,2.0938854217529297,150,1.0,1
150,0,1.0,0,2.3298964500427246,151,1.0,1
151,0,1.0,0,1.3998678922653198,152,1.0,1
152,0,0.0,0,2.0368828773498535,153,0.0,1
153,0,1.0,0,1.7848711013793945,154,1.0,1
154,0,1.0,0,1.662865400314331,155,0.0,1
155,0,1.0,0,2.229891777038574,156,1.0,1
156,0,1.0,0,1.2938692569732666,157,1.0,1
157,0,0.0,0,1.527866244316101,158,0.0,1
158,0,1.0,0,1.7578697204589844,159,1.0,1
159,0,1.0,0,1.3858680725097656,160,0.0,1
160,0,1.0,0,1.6078652143478394,161,1.0,1
161,0,1.0,0,1.5078665018081665,162,1.0,1
162,0,1.0,0,1.410867691040039,163,1.0,1
163,0,1.0,0,1.5218663215637207,164,1.0,1
164,0,0.0,0,1.3578684329986572,165,0.0,1
165,0,1.0,0,1.6848664283752441,166,1.0,1
166,0,1.0,0,1.7518694400787354,167,1.0,1
167,0,1.0,0,1.0558723211288452,168,1.0,1
168,0,0.0,0,1.7908713817596436,169,0.0,1
169,0,1.0,0,1.8408737182617188,170,1.0,1
170,0,1.0,0,1.395867943763733,171,1.0,1
171,0,1.0,0,1.7158677577972412,172,1.0,1
172,0,1.0,0,1.7628700733184814,173,1.0,1
173,0,0.0,0,2.457902431488037,174,0.0,1
174,0,1.0,0,1.6808662414550781,175,1.0,1
175,0,1.0,0,1.251869797706604,176,1.0,1
176,0,1.0,0,1.1028716564178467,177,1.0,1
177,0,1.0,0,1.9678795337677002,178,1.0,1
178,0,0.0,0,1.893876075744629,179,0.0,1
179,0,1.0,0,1.461867094039917,180,1.0,1
180,0,1.0,0,1.32486891746521,181,1.0,1
181,0,1.0,0,1.1748707294464111,182,1.0,1
182,0,1.0,0,1.4028677940368652,183,0.0,1
183,0,1.0,0,1.928877830505371,184,1.0,1
184,0,0.0,0,1.4218676090240479,185,0.0,1
185,0,1.0,0,1.1958705186843872,186,1.0,1
186,0,1.0,0,2.0878851413726807,187,1.0,1
187,0,1.0,0,1.9958808422088623,188,1.0,1
188,0,1.0,0,1.0698721408843994,189,0.0,1
189,0,1.0,0,2.0718843936920166,190,1.0,1
190,0,1.0,0,1.5738656520843506,191,0.0,1
191,0,0.0,0,1.045872449874878,192,0.0,1
192,0,0.0,0,1.925877571105957,193,0.0,1
193,0,0.0,0,1.3758682012557983,194,0.0,1
194,0,0.0,0,2.205890655517578,195,0.0,1
195,0,0.0,0,2.0868852138519287,196,0.0,1
196,0,1.0,0,2.3218960762023926,197,0.0,1
197,0,0.0,0,1.7288684844970703,198,0.0,1
198,0,0.0,0,1.3348686695098877,199,0.0,1
199,0,0.0,0,1.7018671035766602,200,0.0,1
200,0,1.0,0,1.3638683557510376,201,1.0,1
201,0,1.0,0,1.412867784500122,202,1.0,1
202,0,1.0,0,1.7128677368164062,203,1.0,1
203,0,1.0,0,1.650864839553833,204,1.0,1
204,0,1.0,0,1.7788708209991455,205,1.0,1
205,0,1.0,0,1.560865879058838,206,1.0,1
206,0,1.0,0,1.159870982170105,207,1.0,1
207,0,0.0,0,1.6378648281097412,208,0.0,1
208,0,1.0,0,1.1198714971542358,209,1.0,1
209,0,1.0,0,2.0118815898895264,210,0.0,1
210,0,0.0,0,1.3678683042526245,211,0.0,1
211,0,0.0,0,1.2438699007034302,212,0.0,1
212,0,0.0,0,2.0698843002319336,213,0.0,1
213,0,1.0,0,1.657865047454834,214,1.0,1
214,0,1.0,0,2.0868852138519287,215,1.0,1
215,0,1.0,0,1.2528698444366455,216,0.0,1
216,0,1.0,0,1.918877363204956,217,1.0,1
217,0,1.0,0,1.6418647766113281,218,1.0,1
218,0,0.0,0,1.676866054534912,219,0.0,1
219,0,0.0,0,1.3548684120178223,220,0.0,1
220,0,1.0,0,1.4948666095733643,221,1.0,1
221,0,1.0,0,1.130871295928955,222,1.0,1
222,0,1.0,0,1.5688657760620117,223,1.0,1
223,0,1.0,0,1.7568697929382324,224,1.0,1
224,0,1.0,0,2.2328920364379883,225,0.0,1
225,0,1.0,0,1.627864956855774,226,0.0,1
226,0,0.0,0,1.5728657245635986,227,0.0,1
227,0,0.0,0,1.6108651161193848,228,0.0,1
228,0,1.0,0,1.7168679237365723,229,1.0,1
229,0,0.0,0,2.132887363433838,230,0.0,1
230,0,1.0,0,1.8668749332427979,231,1.0,1
231,0,1.0,0,1.4738669395446777,232,1.0,1
232,0,0.0,0,2.1078860759735107,233,0.0,1
233,0,1.0,0,1.7998716831207275,234,1.0,1
234,0,1.0,0,1.667865514755249,235,1.0,1
235,0,1.0,0,1.935878038406372,236,1.0,1
236,0,0.0,0,1.5658657550811768,237,0.0,1
237,0,1.0,0,1.672865867614746,238,1.0,1
238,0,1.0,0,2.418900728225708,239,1.0,1
239,0,1.0,0,1.041872501373291,240,0.0,1
240,0,1.0,0,2.168889045715332,241,1.0,1
241,0,1.0,0,1.4898667335510254,242,0.0,1
242,0,1.0,0,2.0108816623687744,243,1.0,1
243,0,1.0,0,2.2478926181793213,244,1.0,1
244,0,0.0,0,1.3868680000305176,245,1.0,1
245,0,1.0,0,1.7828710079193115,246,0.0,1
246,0,0.0,0,1.3088691234588623,247,0.0,1
247,0,1.0,0,2.191890001296997,248,1.0,1
248,0,1.0,0,1.6038652658462524,249,1.0,1
249,0,1.0,0,1.5788655281066895,250,1.0,1
250,0,1.0,0,1.6808662414550781,251,0.0,1
251,0,1.0,0,2.184889793395996,252,1.0,1
252,0,1.0,0,2.0408830642700195,253,1.0,1
253,0,1.0,0,1.343868613243103,254,1.0,1
254,0,1.0,0,1.7318685054779053,255,1.0,1
255,0,1.0,0,1.666865587234497,256,1.0,1
256,0,1.0,0,1.2668695449829102,257,1.0,1
257,0,1.0,0,1.2908692359924316,258,0.0,1
258,0,1.0,0,1.9718797206878662,259,0.0,1
259,0,1.0,0,2.0448832511901855,260,1.0,1
260,0,1.0,0,1.3898680210113525,261,1.0,1
261,0,1.0,0,1.6388647556304932,262,1.0,1
262,0,1.0,0,1.7958714962005615,263,1.0,1
263,0,1.0,0,1.7348687648773193,264,0.0,1
264,0,0.0,0,1.9918806552886963,265,0.0,1
265,0,1.0,0,1.8718750476837158,266,1.0,1
266,0,1.0,0,1.3868680000305176,267,1.0,1
267,0,1.0,0,1.7808709144592285,268,1.0,1
268,0,1.0,0,1.7198679447174072,269,1.0,1
269,0,0.0,0,1.5928654670715332,270,0.0,1
270,0,1.0,0,1.3068690299987793,271,1.0,1
271,0,1.0,0,1.9538788795471191,272,1.0,1
272,0,1.0,0,2.2778940200805664,273,1.0,1
273,0,0.0,0,1.387868046760559,274,0.0,1
274,0,1.0,0,0.9258739948272705,275,1.0,1
275,0,0.0,0,1.889875888824463,276,0.0,1
276,0,1.0,0,1.906876802444458,277,1.0,1
277,0,1.0,0,1.3418686389923096,278,1.0,1
278,0,1.0,0,1.3548684120178223,279,1.0,1
279,0,1.0,0,1.1588709354400635,280,1.0,1
280,0,0.0,0,1.8418736457824707,281,1.0,1
281,0,1.0,0,1.600865364074707,282,1.0,1
282,0,0.0,0,1.5558658838272095,283,0.0,1
283,0,1.0,0,1.3448686599731445,284,0.0,1
284,0,1.0,0,1.137871265411377,285,1.0,1
285,0,1.0,0,1.9618792533874512,286,1.0,1
286,0,1.0,0,1.552865982055664,287,1.0,1
287,0,1.0,0,1.9728798866271973,288,1.0,1
288,0,1.0,0,1.2108702659606934,289,1.0,1
289,0,1.0,0,1.3348686695098877,290,1.0,1
290,0,0.0,0,1.462867021560669,291,0.0,1
291,0,1.0,0,1.8308732509613037,292,1.0,1
292,0,1.0,0,1.7588698863983154,293,1.0,1
293,0,1.0,0,1.4598671197891235,294,1.0,1
294,0,1.0,0,1.8388736248016357,295,1.0,1
295,0,1.0,0,1.5418660640716553,296,0.0,1
296,0,0.0,0,1.5188663005828857,297,1.0,1
297,0,0.0,0,1.3948678970336914,298,0.0,1
298,0,0.0,0,1.1498711109161377,299,0.0,1
299,0,1.0,0,1.6788661479949951,300,1.0,1
300,0,1.0,0,2.208890914916992,301,1.0,1
301,0,1.0,0,1.679866075515747,302,1.0,1
302,0,1.0,0,1.1068716049194336,303,1.0,1
303,0,1.0,0,1.487866759300232,304,0.0,1
304,0,0.0,0,2.190890073776245,305,1.0,1
305,0,0.0,0,1.4038678407669067,306,0.0,1
306,0,1.0,0,1.7778706550598145,307,1.0,1
307,0,1.0,0,1.2188701629638672,308,1.0,1
308,0,1.0,0,1.9508788585662842,309,1.0,1
309,0,1.0,0,1.4978666305541992,310,1.0,1
310,0,0.0,0,1.6388647556304932,311,0.0,1
311,0,1.0,0,1.320868968963623,312,1.0,1
312,0,1.0,0,1.9608793258666992,313,1.0,1
313,0,0.0,0,1.416867733001709,314,0.0,1
314,0,1.0,0,1.7218680381774902,315,0.0,1
315,0,0.0,0,1.8268730640411377,316,0.0,1
316,0,0.0,0,2.0548837184906006,317,1.0,1
317,0,0.0,0,1.6928668022155762,318,0.0,1
318,0,1.0,0,1.908876895904541,319,1.0,1
319,0,1.0,0,1.4718669652938843,320,1.0,1
320,0,1.0,0,1.0888718366622925,321,1.0,1
321,0,1.0,0,1.4518672227859497,322,1.0,1
322,0,0.0,0,1.7348687648773193,323,0.0,1
323,0,1.0,0,1.3868680000305176,324,1.0,1
324,0,1.0,0,1.5618658065795898,325,1.0,1
325,0,1.0,0,2.132887363433838,326,1.0,1
326,0,1.0,0,1.670865774154663,327,1.0,1
327,0,1.0,0,1.9468786716461182,328,0.0,1
328,0,1.0,0,1.9808802604675293,329,1.0,1
329,0,0.0,0,1.3398686647415161,330,1.0,1
330,0,0.0,0,1.111871600151062,331,0.0,1
331,0,1.0,0,1.6218650341033936,332,1.0,1
332,0,0.0,0,1.1698708534240723,333,0.0,1
333,0,1.0,0,1.663865327835083,334,1.0,1
334,0,1.0,0,1.535866141319275,335,0.0,1
335,0,1.0,0,1.9928808212280273,336,1.0,1
336,0,1.0,0,1.7638700008392334,337,1.0,1
337,0,1.0,0,1.8058719635009766,338,1.0,1
338,0,1.0,0,1.6398648023605347,339,1.0,1
339,0,1.0,0,1.7118675708770752,340,1.0,1
340,0,1.0,0,1.5868654251098633,341,1.0,1
341,0,1.0,0,1.5148663520812988,342,1.0,1
342,0,1.0,0,1.7218680381774902,343,1.0,1
343,0,0.0,0,1.3518685102462769,344,0.0,1
344,0,0.0,0,2.0408830642700195,345,0.0,1
345,0,1.0,0,1.5878654718399048,346,0.0,1
346,0,1.0,0,1.7408690452575684,347,1.0,1
347,0,0.0,0,1.8748753070831299,348,0.0,1
348,0,1.0,0,1.0978717803955078,349,1.0,1
349,0,0.0,0,1.8238728046417236,350,0.0,1
350,0,1.0,0,1.1248713731765747,351,1.0,1
351,0,1.0,0,1.5808656215667725,352,1.0,1
352,0,1.0,0,1.8578743934631348,353,1.0,1
353,0,1.0,0,1.6318649053573608,354,1.0,1
354,0,0.0,0,1.89487624168396,355,0.0,1
355,0,0.0,0,1.5938653945922852,356,0.0,1
356,0,1.0,0,2.152888298034668,357,1.0,1
357,0,0.0,0,1.3038691282272339,358,0.0,1
358,0,1.0,0,1.8188726902008057,359,1.0,1
359,0,1.0,0,1.391867995262146,360,1.0,1
360,0,1.0,0,1.420867681503296,361,1.0,1
361,0,1.0,0,2.225891590118408,362,1.0,1
362,0,1.0,0,1.207870364189148,363,0.0,1
363,0,1.0,0,1.508866548538208,364,1.0,1
364,0,1.0,0,1.1678708791732788,365,1.0,1
365,0,1.0,0,1.4708669185638428,366,1.0,1
366,0,1.0,0,1.5138664245605469,367,0.0,1
367,0,0.0,0,1.1398712396621704,368,0.0,1
368,0,1.0,0,1.598865270614624,369,1.0,1
369,0,0.0,0,1.916877269744873,370,0.0,1
370,0,1.0,0,2.0718843936920166,371,1.0,1
371,0,1.0,0,1.4538671970367432,372,1.0,1
372,0,1.0,0,1.5998653173446655,373,1.0,1
373,0,1.0,0,1.660865306854248,374,1.0,1
374,0,1.0,0,1.2418699264526367,375,1.0,1
375,0,1.0,0,1.4318674802780151,376,0.0,1
376,0,0.0,0,1.2878693342208862,377,0.0,1
377,0,0.0,0,1.7728705406188965,378,0.0,1
378,0,0.0,0,2.172889232635498,379,1.0,1
379,0,0.0,0,1.5768656730651855,380,0.0,1
380,0,0.0,0,2.0898852348327637,381,0.0,1
381,0,1.0,0,1.6168651580810547,382,1.0,1
382,0,1.0,0,2.116886615753174,383,1.0,1
383,0,1.0,0,1.7778706550598145,384,1.0,1
384,0,1.0,0,2.215891122817993,385,1.0,1
385,0,1.0,0,1.1278713941574097,386,1.0,1
386,0,1.0,0,1.4338674545288086,387,1.0,1
387,0,1.0,0,1.600865364074707,388,1.0,1
388,0,1.0,0,2.0438830852508545,389,0.0,1
389,0,0.0,0,2.110886335372925,390,0.0,1
390,0,0.0,0,1.8058719635009766,391,1.0,1
391,0,0.0,0,1.932878017425537,392,0.0,1
392,0,1.0,0,1.6408648490905762,393,1.0,1
393,0,1.0,0,1.6188650131225586,394,0.0,1
394,0,1.0,0,1.5438660383224487,395,0.0,1
395,0,0.0,0,1.925877571105957,396,0.0,1
396,0,1.0,0,1.6308648586273193,397,1.0,1
397,0,1.0,0,2.106886148452759,398,1.0,1
398,0,1.0,0,1.5558658838272095,399,1.0,1
399,0,1.0,0,1.6208651065826416,400,1.0,1
400,0,1.0,0,1.5158663988113403,401,1.0,1
401,0,1.0,0,1.7218680381774902,402,1.0,1
402,0,0.0,0,2.166888952255249,403,0.0,1
403,0,1.0,0,1.230870008468628,404,1.0,1
404,0,1.0,0,1.3538684844970703,405,0.0,1
405,0,1.0,0,1.9998810291290283,406,0.0,1
406,0,0.0,0,1.1668708324432373,407,0.0,1
407,0,0.0,0,1.2508697509765625,408,0.0,1
408,0,0.0,0,2.119886636734009,409,0.0,1
409,0,0.0,0,1.7848711013793945,410,0.0,1
410,0,1.0,0,1.7168679237365723,411,1.0,1
411,0,1.0,0,2.0548837184906006,412,1.0,1
412,0,1.0,0,1.1998704671859741,413,1.0,1
413,0,1.0,0,1.5218663215637207,414,1.0,1
414,0,1.0,0,1.7398688793182373,415,1.0,1
415,0,1.0,0,1.4918667078018188,416,1.0,1
416,0,1.0,0,2.0128817558288574,417,0.0,1
417,0,0.0,0,1.8658747673034668,418,0.0,1
418,0,0.0,0,1.5698657035827637,419,0.0,1
419,0,0.0,0,1.1428711414337158,420,0.0,1
420,0,0.0,0,1.4528672695159912,421,0.0,1
421,0,0.0,0,1.6308648586273193,422,0.0,1
422,0,1.0,0,0.9348738193511963,423,1.0,1
423,0,0.0,0,1.2068703174591064,424,0.0,1
424,0,1.0,0,1.32486891746521,425,1.0,1
425,0,1.0,0,1.5558658838272095,426,1.0,1
426,0,1.0,0,1.2388699054718018,427,1.0,1
427,0,1.0,0,2.2588932514190674,428,1.0,1
428,0,1.0,0,1.5558658838272095,429,1.0,1
429,0,1.0,0,2.0898852348327637,430,1.0,1
430,0,1.0,0,1.651864767074585,431,1.0,1
431,0,1.0,0,1.8668749332427979,432,0.0,1
432,0,1.0,0,2.141887664794922,433,1.0,1
433,0,1.0,0,1.8228728771209717,434,0.0,1
434,0,1.0,0,1.9658794403076172,435,1.0,1
435,0,1.0,0,2.192890167236328,436,0.0,1
436,0,0.0,0,1.317868947982788,437,0.0,1
437,0,1.0,0,1.7578697204589844,438,1.0,1
438,0,1.0,0,2.3658981323242188,439,0.0,1
439,0,0.0,0,1.5348660945892334,440,0.0,1
440,0,0.0,0,2.2848944664001465,441,0.0,1
441,0,0.0,0,1.7328686714172363,442,1.0,1
442,0,0.0,0,1.343868613243103,443,0.0,1
443,0,0.0,0,1.7468693256378174,444,0.0,1
444,0,1.0,0,2.163888692855835,445,1.0,1
445,0,1.0,0,1.1368712186813354,446,1.0,1
446,0,1.0,0,1.9688796997070312,447,0.0,1
447,0,0.0,0,2.0398828983306885,448,0.0,1
448,0,0.0,0,1.5848655700683594,449,0.0,1
449,0,0.0,0,2.0448832511901855,450,0.0,1
450,0,1.0,0,2.176889419555664,451,1.0,1
451,0,1.0,0,1.6098651885986328,452,1.0,1
452,0,1.0,0,1.1878706216812134,453,1.0,1
453,0,1.0,0,1.886875867843628,454,1.0,1
454,0,1.0,0,1.247869849205017,455,1.0,1
455,0,0.0,0,1.3718682527542114,456,0.0,1
456,0,1.0,0,1.5678657293319702,457,1.0,1
457,0,1.0,0,1.9708797931671143,458,1.0,1
458,0,1.0,0,2.1008858680725098,459,1.0,1
459,0,0.0,0,2.0318825244903564,460,0.0,1
460,0,1.0,0,1.6938667297363281,461,1.0,1
461,0,1.0,0,1.3288688659667969,462,1.0,1
462,0,1.0,0,1.207870364189148,463,1.0,1
463,0,1.0,0,1.66886568069458,464,1.0,1
464,0,1.0,0,1.3978679180145264,465,1.0,1
465,0,0.0,0,2.144887924194336,466,0.0,1
466,0,1.0,0,2.2658934593200684,467,1.0,1
467,0,1.0,0,1.7058672904968262,468,1.0,1
468,0,1.0,0,1.4418673515319824,469,1.0,1
469,0,1.0,0,1.8618745803833008,470,1.0,1
470,0,1.0,0,1.4298675060272217,471,1.0,1
471,0,1.0,0,2.0138816833496094,472,1.0,1
472,0,1.0,0,1.9978809356689453,473,1.0,1
473,0,1.0,0,1.6138651371002197,474,1.0,1
474,0,1.0,0,1.896876335144043,475,1.0,1
475,0,1.0,0,1.3288688659667969,476,1.0,1
476,0,1.0,0,1.2188701629638672,477,1.0,1
477,0,0.0,0,1.687866449356079,478,0.0,1
478,0,1.0,0,1.7828710079193115,479,0.0,1
479,0,1.0,0,1.317868947982788,480,1.0,1
480,0,1.0,0,1.7778706550598145,481,0.0,1
481,0,1.0,0,1.5448660850524902,482,1.0,1
482,0,1.0,0,1.251869797706604,483,0.0,1
483,0,1.0,0,1.924877643585205,484,1.0,1
484,0,1.0,0,1.644864797592163,485,1.0,1
485,0,1.0,0,1.2978692054748535,486,1.0,1
486,0,0.0,0,2.3058953285217285,487,0.0,1
487,0,1.0,0,1.5698657035827637,488,0.0,1
488,0,0.0,0,1.9738798141479492,489,0.0,1
489,0,0.0,0,2.3018951416015625,490,0.0,1
490,0,0.0,0,1.7748706340789795,491,0.0,1
491,0,1.0,0,1.8308732509613037,492,1.0,1
492,0,0.0,0,2.0698843002319336,493,0.0,1
493,0,1.0,0,1.420867681503296,494,1.0,1
494,0,0.0,0,2.123886823654175,495,0.0,1
495,0,1.0,0,2.0868852138519287,496,1.0,1
496,0,1.0,0,1.4378674030303955,497,1.0,1
497,0,1.0,0,2.0788848400115967,498,1.0,1
498,0,1.0,0,1.134871244430542,499,1.0,1
499,0,1.0,0,2.214891195297241,500,1.0,1
500,0,1.0,1,1.7988717555999756,1,1.0,1
501,0,0.0,1,1.7808709144592285,2,1.0,1
502,0,0.0,1,1.2848694324493408,3,1.0,1
503,0,1.0,1,2.2438924312591553,4,1.0,1
504,0,0.0,1,2.3328967094421387,5,0.0,1
505,0,1.0,1,1.270869493484497,6,0.0,1
506,0,0.0,1,1.7668702602386475,7,1.0,1
507,0,0.0,1,1.7488694190979004,8,0.0,1
508,0,0.0,1,1.7048673629760742,9,0.0,1
509,0,0.0,1,1.464867115020752,10,1.0,1
510,0,0.0,1,1.0838719606399536,11,1.0,1
511,0,0.0,1,1.134871244430542,12,0.0,1
512,0,0.0,1,2.185889720916748,13,0.0,1
513,0,0.0,1,1.3098690509796143,14,1.0,1
514,0,0.0,1,1.3168690204620361,15,0.0,1
515,0,1.0,1,2.3048954010009766,16,1.0,1
516,0,1.0,1,1.7388689517974854,17,1.0,1
517,0,1.0,1,1.8308732509613037,18,0.0,1
518,0,0.0,1,1.9848804473876953,19,0.0,1
519,0,1.0,1,1.8348734378814697,20,0.0,1
520,0,0.0,1,1.9548790454864502,21,0.0,1
521,0,0.0,1,2.0228822231292725,22,1.0,1
522,0,0.0,1,1.605865240097046,23,1.0,1
523,0,0.0,1,1.299869179725647,24,1.0,1
524,0,0.0,1,1.3518685102462769,25,0.0,1
525,0,0.0,1,1.7378687858581543,26,0.0,1
526,0,0.0,1,1.5418660640716553,27,0.0,1
527,0,0.0,1,1.6868665218353271,28,0.0,1
528,0,0.0,1,1.4508671760559082,29,0.0,1
529,0,1.0,1,2.161888599395752,30,0.0,1
530,0,1.0,1,2.0818848609924316,31,1.0,1
531,0,0.0,1,1.5188663005828857,32,0.0,1
532,0,1.0,1,1.4748668670654297,33,1.0,1
533,0,0.0,1,1.6358648538589478,34,0.0,1
534,0,1.0,1,2.0188820362091064,35,0.0,1
535,0,0.0,1,1.1408711671829224,36,1.0,1
536,0,0.0,1,0.9438737630844116,37,1.0,1
537,0,0.0,1,1.0738720893859863,38,0.0,1
538,0,1.0,1,2.3338966369628906,39,1.0,1
539,0,1.0,1,1.7608699798583984,40,1.0,1
540,0,1.0,1,1.6948668956756592,41,0.0,1
541,0,0.0,1,1.3128690719604492,42,0.0,1
542,0,1.0,1,1.510866403579712,43,1.0,1
543,0,0.0,1,2.1078860759735107,44,0.0,1
544,0,1.0,1,1.917877197265625,45,1.0,1
545,0,0.0,1,1.4198676347732544,46,0.0,1
546,0,1.0,1,1.2148702144622803,47,0.0,1
547,0,1.0,1,1.653864860534668,48,1.0,1
548,0,0.0,1,2.3008952140808105,49,1.0,1
549,0,0.0,1,1.64286470413208,50,0.0,1
550,0,1.0,1,1.4488673210144043,51,1.0,1
551,0,1.0,1,1.5908653736114502,52,1.0,1
552,0,1.0,1,1.8028719425201416,53,1.0,1
553,0,1.0,1,1.8668749332427979,54,0.0,1
554,0,0.0,1,0.9928730726242065,55,0.0,1
555,0,1.0,1,1.5618658065795898,56,0.0,1
556,0,1.0,1,2.122886896133423,57,1.0,1
557,0,1.0,1,1.8228728771209717,58,0.0,1
558,0,0.0,1,1.7458691596984863,59,1.0,1
559,0,0.0,1,1.1228713989257812,60,0.0,1
560,0,1.0,1,2.0168819427490234,61,1.0,1
561,0,1.0,1,2.0238821506500244,62,1.0,1
562,0,1.0,1,1.8328733444213867,63,0.0,1
563,0,0.0,1,1.4978666305541992,64,0.0,1
564,0,0.0,1,2.0098814964294434,65,1.0,1
565,0,0.0,1,1.0128728151321411,66,0.0,1
566,0,1.0,1,1.7588698863983154,67,1.0,1
567,0,1.0,1,1.552865982055664,68,1.0,1
568,0,1.0,1,1.8458738327026367,69,1.0,1
569,0,1.0,1,1.5198663473129272,70,1.0,1
570,0,0.0,1,2.215891122817993,71,1.0,1
571,0,1.0,1,2.183889627456665,72,1.0,1
572,0,0.0,1,1.8668749332427979,73,1.0,1
573,0,0.0,1,1.4888668060302734,74,0.0,1
574,0,1.0,1,1.2278701066970825,75,1.0,1
575,0,1.0,1,2.2578930854797363,76,1.0,1
576,0,1.0,1,1.512866497039795,77,1.0,1
577,0,1.0,1,1.3458685874938965,78,0.0,1
578,0,1.0,1,1.549865961074829,79,1.0,1
579,0,1.0,1,1.181870698928833,80,1.0,1
580,0,1.0,1,1.4318674802780151,81,1.0,1
581,0,1.0,1,1.7628700733184814,82,1.0,1
582,0,1.0,1,2.0168819427490234,83,1.0,1
583,0,1.0,1,1.4968667030334473,84,1.0,1
584,0,1.0,1,1.672865867614746,85,1.0,1
585,0,1.0,1,2.155888319015503,86,0.0,1
586,0,0.0,1,1.414867639541626,87,1.0,1
587,0,0.0,1,1.1268713474273682,88,0.0,1
588,0,0.0,1,1.3128690719604492,89,0.0,1
589,0,1.0,1,1.3498685359954834,90,0.0,1
590,0,0.0,1,1.163870930671692,91,0.0,1
591,0,0.0,1,2.164888858795166,92,0.0,1
592,0,1.0,1,1.5228662490844727,93,1.0,1
593,0,0.0,1,1.1548709869384766,94,0.0,1
594,0,1.0,1,1.512866497039795,95,1.0,1
595,0,1.0,1,1.3898680210113525,96,0.0,1
596,0,0.0,1,1.661865234375,97,1.0,1
597,0,0.0,1,1.891875982284546,98,0.0,1
598,0,1.0,1,2.2768940925598145,99,0.0,1
599,0,1.0,1,1.9918806552886963,100,0.0,1
600,0,0.0,1,1.3028690814971924,101,0.0,1
601,0,0.0,1,2.0818848609924316,102,0.0,1
602,0,1.0,1,1.299869179725647,103,1.0,1
603,0,1.0,1,1.2888693809509277,104,1.0,1
604,0,1.0,1,1.4558671712875366,105,0.0,1
605,0,0.0,1,1.1218714714050293,106,1.0,1
606,0,0.0,1,1.0808719396591187,107,1.0,1
607,0,0.0,1,2.119886636734009,108,1.0,1
608,0,0.0,1,1.3488686084747314,109,0.0,1
609,0,0.0,1,1.7208681106567383,110,0.0,1
610,0,0.0,1,1.255869746208191,111,1.0,1
611,0,0.0,1,2.2778940200805664,112,1.0,1
612,0,0.0,1,2.0718843936920166,113,0.0,1
613,0,0.0,1,1.1648709774017334,114,1.0,1
614,0,0.0,1,1.7208681106567383,115,0.0,1
615,0,0.0,1,1.7008671760559082,116,0.0,1
616,0,0.0,1,1.5958653688430786,117,0.0,1
617,0,0.0,1,1.5118664503097534,118,1.0,1
618,0,0.0,1,1.27286958694458,119,1.0,1
619,0,0.0,1,1.0878719091415405,120,0.0,1
620,0,1.0,1,1.7618699073791504,121,1.0,1
621,0,0.0,1,2.163888692855835,122,0.0,1
622,0,0.0,1,1.4638670682907104,123,0.0,1
623,0,1.0,1,1.5228662490844727,124,0.0,1
624,0,0.0,1,2.132887363433838,125,0.0,1
625,0,0.0,1,2.0918853282928467,126,0.0,1
626,0,1.0,1,1.7778706550598145,127,1.0,1
627,0,0.0,1,1.3868680000305176,128,0.0,1
628,0,1.0,1,2.119886636734009,129,0.0,1
629,0,0.0,1,1.8178725242614746,130,0.0,1
630,0,0.0,1,1.689866542816162,131,0.0,1
631,0,0.0,1,1.041872501373291,132,0.0,1
632,0,1.0,1,1.5908653736114502,133,1.0,1
633,0,0.0,1,2.0168819427490234,134,0.0,1
634,0,1.0,1,1.2868692874908447,135,1.0,1
635,0,1.0,1,1.4948666095733643,136,0.0,1
636,0,0.0,1,2.0888853073120117,137,0.0,1
637,0,1.0,1,1.8498740196228027,138,1.0,1
638,0,1.0,1,1.5958653688430786,139,1.0,1
639,0,1.0,1,1.8548743724822998,140,0.0,1
640,0,0.0,1,1.4078677892684937,141,0.0,1
641,0,0.0,1,1.9698796272277832,142,0.0,1
642,0,0.0,1,1.9518787860870361,143,1.0,1
643,0,0.0,1,1.2598696947097778,144,0.0,1
644,0,0.0,1,1.1068716049194336,145,1.0,1
645,0,0.0,1,1.8638746738433838,146,0.0,1
646,0,0.0,1,1.649864673614502,147,0.0,1
647,0,0.0,1,1.4318674802780151,148,0.0,1
648,0,1.0,1,1.5688657760620117,149,1.0,1
649,0,1.0,1,1.8548743724822998,150,1.0,1
650,0,1.0,1,1.6038652658462524,151,1.0,1
651,0,1.0,1,1.9428784847259521,152,1.0,1
652,0,1.0,1,1.8128724098205566,153,1.0,1
653,0,1.0,1,2.129887104034424,154,1.0,1
654,0,1.0,1,1.3528685569763184,155,1.0,1
655,0,1.0,1,1.2898693084716797,156,1.0,1
656,0,1.0,1,1.2458698749542236,157,0.0,1
657,0,0.0,1,1.7938714027404785,158,1.0,1
658,0,0.0,1,1.7088675498962402,159,1.0,1
659,0,0.0,1,1.4508671760559082,160,0.0,1
660,0,0.0,1,2.2488927841186523,161,0.0,1
661,0,0.0,1,0.949873685836792,162,0.0,1
662,0,1.0,1,1.0948717594146729,163,0.0,1
663,0,0.0,1,1.554865837097168,164,0.0,1
664,0,1.0,1,1.899876356124878,165,1.0,1
665,0,1.0,1,1.4378674030303955,166,1.0,1
666,0,1.0,1,1.7288684844970703,167,1.0,1
667,0,1.0,1,1.4518672227859497,168,0.0,1
668,0,0.0,1,1.5918654203414917,169,0.0,1
669,0,1.0,1,1.7578697204589844,170,0.0,1
670,0,0.0,1,1.7458691596984863,171,0.0,1
671,0,0.0,1,1.7608699798583984,172,0.0,1
672,0,0.0,1,1.8278729915618896,173,1.0,1
673,0,0.0,1,1.9828803539276123,174,0.0,1
674,0,1.0,1,1.670865774154663,175,1.0,1
675,0,1.0,1,1.7838709354400635,176,0.0,1
676,0,0.0,1,1.2598696947097778,177,0.0,1
677,0,0.0,1,1.7678701877593994,178,0.0,1
678,0,0.0,1,1.9918806552886963,179,0.0,1
679,0,0.0,1,1.137871265411377,180,0.0,1
680,0,0.0,1,1.915877103805542,181,1.0,1
681,0,0.0,1,0.9598735570907593,182,0.0,1
682,0,0.0,1,1.6808662414550781,183,0.0,1
683,0,0.0,1,0.9668734073638916,184,1.0,1
684,0,0.0,1,1.6078652143478394,185,1.0,1
685,0,1.0,1,1.7548696994781494,186,0.0,1
686,0,0.0,1,1.27286958694458,187,0.0,1
687,0,1.0,1,1.9958808422088623,188,1.0,1
688,0,1.0,1,2.0538835525512695,189,0.0,1
689,0,1.0,1,1.7748706340789795,190,0.0,1
690,0,1.0,1,1.3168690204620361,191,1.0,1
691,0,0.0,1,0.993873119354248,192,0.0,1
692,0,1.0,1,1.4668669700622559,193,1.0,1
693,0,1.0,1,1.2398699522018433,194,1.0,1
694,0,1.0,1,1.465867042541504,195,1.0,1
695,0,1.0,1,1.4078677892684937,196,0.0,1
696,0,0.0,1,1.29586923122406,197,0.0,1
697,0,1.0,1,1.556865930557251,198,0.0,1
698,0,1.0,1,1.5908653736114502,199,0.0,1
699,0,0.0,1,1.8218727111816406,200,0.0,1
700,0,0.0,1,1.0658721923828125,201,1.0,1
701,0,0.0,1,1.7008671760559082,202,0.0,1
702,0,0.0,1,1.0878719091415405,203,0.0,1
703,0,0.0,1,1.1908705234527588,204,0.0,1
704,0,1.0,1,1.7088675498962402,205,1.0,1
705,0,1.0,1,1.7288684844970703,206,1.0,1
706,0,1.0,1,1.7038671970367432,207,1.0,1
707,0,1.0,1,1.8438737392425537,208,1.0,1
708,0,1.0,1,1.2938692569732666,209,0.0,1
709,0,0.0,1,1.4828667640686035,210,0.0,1
710,0,0.0,1,1.038872480392456,211,0.0,1
711,0,0.0,1,1.7888712882995605,212,1.0,1
712,0,0.0,1,1.1838706731796265,213,0.0,1
713,0,1.0,1,1.898876428604126,214,1.0,1
714,0,1.0,1,1.9568791389465332,215,0.0,1
715,0,1.0,1,1.8638746738433838,216,1.0,1
716,0,1.0,1,1.8398735523223877,217,1.0,1
717,0,1.0,1,1.8148725032806396,218,1.0,1
718,0,1.0,1,1.602865219116211,219,1.0,1
719,0,1.0,1,1.1008716821670532,220,0.0,1
720,0,0.0,1,1.5848655700683594,221,1.0,1
721,0,1.0,1,1.5418660640716553,222,0.0,1
722,0,0.0,1,1.8028719425201416,223,0.0,1
723,0,0.0,1,2.1028859615325928,224,0.0,1
724,0,0.0,1,1.5598658323287964,225,0.0,1
725,0,0.0,1,1.9448785781860352,226,1.0,1
726,0,0.0,1,1.1188714504241943,227,0.0,1
727,0,1.0,1,1.8078720569610596,228,0.0,1
728,0,1.0,1,2.3008952140808105,229,0.0,1
729,0,1.0,1,1.015872836112976,230,1.0,1
730,0,1.0,1,1.597865343093872,231,1.0,1
731,0,1.0,1,1.7018671035766602,232,0.0,1
732,0,0.0,1,1.5588657855987549,233,0.0,1
733,0,0.0,1,1.4028677940368652,234,0.0,1
734,0,1.0,1,1.7278683185577393,235,0.0,1
735,0,0.0,1,1.9818801879882812,236,1.0,1
736,0,0.0,1,1.6988670825958252,237,0.0,1
737,0,0.0,1,1.5918654203414917,238,1.0,1
738,0,0.0,1,1.2368700504302979,239,0.0,1
739,0,1.0,1,1.8678748607635498,240,1.0,1
740,0,1.0,1,2.172889232635498,241,1.0,1
741,0,0.0,1,2.3238961696624756,242,0.0,1
742,0,1.0,1,1.3798681497573853,243,0.0,1
743,0,0.0,1,1.895876169204712,244,0.0,1
744,0,0.0,1,1.228870153427124,245,0.0,1
745,0,1.0,1,1.651864767074585,246,1.0,1
746,0,1.0,1,1.9448785781860352,247,1.0,1
747,0,1.0,1,1.8858757019042969,248,1.0,1
748,0,1.0,1,1.5488660335540771,249,1.0,1
749,0,1.0,1,1.2538697719573975,250,1.0,1
750,0,1.0,1,1.6078652143478394,251,1.0,1
751,0,1.0,1,1.4508671760559082,252,1.0,1
752,0,0.0,1,2.194890260696411,253,1.0,1
753,0,0.0,1,1.674865961074829,254,1.0,1
754,0,0.0,1,1.7898712158203125,255,0.0,1
755,0,0.0,1,1.4248676300048828,256,0.0,1
756,0,0.0,1,2.0658841133117676,257,0.0,1
757,0,1.0,1,1.5898654460906982,258,1.0,1
758,0,1.0,1,1.6308648586273193,259,1.0,1
759,0,0.0,1,1.8608746528625488,260,0.0,1
760,0,1.0,1,0.9748733043670654,261,1.0,1
761,0,0.0,1,0.9898731708526611,262,1.0,1
762,0,0.0,1,1.3928680419921875,263,1.0,1
763,0,0.0,1,1.5478659868240356,264,0.0,1
764,0,1.0,1,1.8158724308013916,265,1.0,1
765,0,1.0,1,2.0228822231292725,266,0.0,1
766,0,1.0,1,2.2208914756774902,267,1.0,1
767,0,1.0,1,1.3858680725097656,268,1.0,1
768,0,1.0,1,1.9618792533874512,269,0.0,1
769,0,0.0,1,1.600865364074707,270,0.0,1
770,0,0.0,1,1.8538742065429688,271,0.0,1
771,0,0.0,1,1.6308648586273193,272,0.0,1
772,0,1.0,1,1.2448699474334717,273,1.0,1
773,0,0.0,1,1.932878017425537,274,0.0,1
774,0,1.0,1,1.8738751411437988,275,0.0,1
775,0,0.0,1,1.232870101928711,276,1.0,1
776,0,0.0,1,2.131887197494507,277,1.0,1
777,0,0.0,1,1.9788801670074463,278,0.0,1
778,0,0.0,1,1.7258682250976562,279,0.0,1
779,0,1.0,1,1.8298730850219727,280,1.0,1
780,0,1.0,1,1.7878711223602295,281,1.0,1
781,0,1.0,1,1.4848668575286865,282,1.0,1
782,0,1.0,1,1.8218727111816406,283,0.0,1
783,0,0.0,1,1.8418736457824707,284,1.0,1
784,0,0.0,1,1.1958705186843872,285,1.0,1
785,0,0.0,1,2.2608933448791504,286,1.0,1
786,0,0.0,1,1.4668669700622559,287,1.0,1
787,0,0.0,1,1.0028729438781738,288,0.0,1
788,0,1.0,1,2.152888298034668,289,1.0,1
789,0,1.0,1,1.3508684635162354,290,1.0,1
790,0,0.0,1,1.4008679389953613,291,0.0,1
791,0,0.0,1,1.3018691539764404,292,0.0,1
792,0,1.0,1,2.0068814754486084,293,0.0,1
793,0,1.0,1,1.8448739051818848,294,1.0,1
794,0,1.0,1,1.922877550125122,295,1.0,1
795,0,1.0,1,1.4848668575286865,296,0.0,1
796,0,0.0,1,1.1228713989257812,297,1.0,1
797,0,0.0,1,1.8198726177215576,298,0.0,1
798,0,1.0,1,1.687866449356079,299,0.0,1
799,0,0.0,1,1.0728720426559448,300,0.0,1
800,0,0.0,1,1.364868402481079,301,0.0,1
801,0,0.0,1,1.7348687648773193,302,0.0,1
802,0,0.0,1,2.1018857955932617,303,1.0,1
803,0,0.0,1,1.6418647766113281,304,0.0,1
804,0,1.0,1,1.8038718700408936,305,0.0,1
805,0,0.0,1,1.7548696994781494,306,0.0,1
806,0,1.0,1,1.2618696689605713,307,1.0,1
807,0,1.0,1,1.5748655796051025,308,1.0,1
808,0,1.0,1,1.5368661880493164,309,1.0,1
809,0,1.0,1,1.901876449584961,310,1.0,1
810,0,1.0,1,1.3268687725067139,311,1.0,1
811,0,1.0,1,1.531866192817688,312,1.0,1
812,0,1.0,1,1.2208702564239502,313,0.0,1
813,0,0.0,1,2.151888132095337,314,0.0,1
814,0,0.0,1,1.9878804683685303,315,1.0,1
815,0,0.0,1,1.925877571105957,316,0.0,1
816,0,0.0,1,1.560865879058838,317,0.0,1
817,0,0.0,1,2.138887643814087,318,1.0,1
818,0,0.0,1,1.5638657808303833,319,1.0,1
819,0,0.0,1,1.550865888595581,320,0.0,1
820,0,0.0,1,1.2218701839447021,321,1.0,1
821,0,0.0,1,1.554865837097168,322,0.0,1
822,0,0.0,1,1.4858667850494385,323,1.0,1
823,0,1.0,1,1.8238728046417236,324,1.0,1
824,0,1.0,1,1.6218650341033936,325,1.0,1
825,0,0.0,1,1.652864933013916,326,0.0,1
826,0,1.0,1,1.6348648071289062,327,1.0,1
827,0,1.0,1,1.649864673614502,328,1.0,1
828,0,1.0,1,1.089871883392334,329,0.0,1
829,0,0.0,1,1.4858667850494385,330,0.0,1
830,0,0.0,1,1.8198726177215576,331,1.0,1
831,0,0.0,1,1.8628747463226318,332,0.0,1
832,0,0.0,1,1.4848668575286865,333,0.0,1
833,0,1.0,1,1.7288684844970703,334,0.0,1
834,0,1.0,1,1.7928714752197266,335,1.0,1
835,0,1.0,1,1.1688709259033203,336,1.0,1
836,0,1.0,1,1.2858693599700928,337,0.0,1
837,0,1.0,1,2.3498973846435547,338,1.0,1
838,0,1.0,1,1.9498786926269531,339,0.0,1
839,0,1.0,1,1.9848804473876953,340,1.0,1
840,0,0.0,1,1.896876335144043,341,1.0,1
841,0,1.0,1,2.0608839988708496,342,0.0,1
842,0,0.0,1,1.3138689994812012,343,0.0,1
843,0,0.0,1,1.4568672180175781,344,0.0,1
844,0,1.0,1,1.5378661155700684,345,0.0,1
845,0,1.0,1,1.6288650035858154,346,1.0,1
846,0,0.0,1,1.7438690662384033,347,0.0,1
847,0,0.0,1,1.7328686714172363,348,0.0,1
848,0,0.0,1,1.5748655796051025,349,1.0,1
849,0,1.0,1,1.898876428604126,350,1.0,1
850,0,0.0,1,1.3638683557510376,351,0.0,1
851,0,1.0,1,1.5478659868240356,352,0.0,1
852,0,0.0,1,2.2708938121795654,353,1.0,1
853,0,0.0,1,1.1588709354400635,354,0.0,1
854,0,1.0,1,2.204890727996826,355,1.0,1
855,0,1.0,1,1.4988665580749512,356,1.0,1
856,0,1.0,1,1.7188680171966553,357,1.0,1
857,0,1.0,1,1.594865322113037,358,1.0,1
858,0,1.0,1,1.5168664455413818,359,1.0,1
859,0,1.0,1,1.3138689994812012,360,1.0,1
860,0,1.0,1,1.5408661365509033,361,0.0,1
861,0,0.0,1,1.673865795135498,362,0.0,1
862,0,0.0,1,1.888875961303711,363,0.0,1
863,0,0.0,1,2.143887758255005,364,0.0,1
864,0,1.0,1,1.931877851486206,365,0.0,1
865,0,1.0,1,1.50986647605896,366,0.0,1
866,0,0.0,1,1.0888718366622925,367,0.0,1
867,0,0.0,1,1.5648658275604248,368,1.0,1
868,0,0.0,1,1.645864725112915,369,0.0,1
869,0,0.0,1,1.3048691749572754,370,1.0,1
870,0,0.0,1,1.0888718366622925,371,0.0,1
871,0,0.0,1,1.579865574836731,372,1.0,1
872,0,0.0,1,1.8128724098205566,373,0.0,1
873,0,0.0,1,1.461867094039917,374,0.0,1
874,0,0.0,1,1.3748681545257568,375,1.0,1
875,0,0.0,1,1.7468693256378174,376,0.0,1
876,0,0.0,1,1.6788661479949951,377,1.0,1
877,0,0.0,1,1.7638700008392334,378,1.0,1
878,0,0.0,1,1.1768708229064941,379,0.0,1
879,0,0.0,1,1.8818755149841309,380,0.0,1
880,0,0.0,1,1.159870982170105,381,0.0,1
881,0,0.0,1,1.7848711013793945,382,0.0,1
882,0,1.0,1,1.7888712882995605,383,1.0,1
883,0,1.0,1,1.4808669090270996,384,1.0,1
884,0,1.0,1,1.939878225326538,385,1.0,1
885,0,1.0,1,1.4918667078018188,386,1.0,1
886,0,1.0,1,1.2368700504302979,387,0.0,1
887,0,0.0,1,1.7458691596984863,388,1.0,1
888,0,0.0,1,2.2888946533203125,389,0.0,1
889,0,0.0,1,1.5438660383224487,390,0.0,1
890,0,0.0,1,2.0848851203918457,391,0.0,1
891,0,0.0,1,1.1898705959320068,392,0.0,1
892,0,1.0,1,1.4308674335479736,393,0.0,1
893,0,0.0,1,1.3678683042526245,394,0.0,1
894,0,0.0,1,1.6418647766113281,395,0.0,1
895,0,0.0,1,1.7368688583374023,396,0.0,1
896,0,1.0,1,1.9348781108856201,397,1.0,1
897,0,0.0,1,1.8698749542236328,398,0.0,1
898,0,1.0,1,1.5398660898208618,399,1.0,1
899,0,0.0,1,1.7918713092803955,400,0.0,1
900,0,0.0,1,1.9868805408477783,401,1.0,1
901,0,1.0,1,2.1118862628936768,402,1.0,1
902,0,0.0,1,1.4468672275543213,403,0.0,1
903,0,1.0,1,1.553865909576416,404,1.0,1
904,0,1.0,1,1.3948678970336914,405,1.0,1
905,0,1.0,1,2.104886054992676,406,1.0,1
906,0,0.0,1,2.211890935897827,407,0.0,1
907,0,1.0,1,1.6308648586273193,408,1.0,1
908,0,1.0,1,1.3558684587478638,409,1.0,1
909,0,1.0,1,2.199890375137329,410,0.0,1
910,0,1.0,1,2.191890001296997,411,0.0,1
911,0,1.0,1,1.506866455078125,412,1.0,1
912,0,1.0,1,1.9588792324066162,413,0.0,1
913,0,0.0,1,2.0458831787109375,414,0.0,1
914,0,1.0,1,1.6998670101165771,415,1.0,1
915,0,0.0,1,1.6308648586273193,416,0.0,1
916,0,1.0,1,1.7588698863983154,417,1.0,1
917,0,0.0,1,1.7008671760559082,418,0.0,1
918,0,1.0,1,1.1878706216812134,419,1.0,1
919,0,1.0,1,1.7148678302764893,420,1.0,1
920,0,1.0,1,1.6358648538589478,421,1.0,1
921,0,1.0,1,1.2878693342208862,422,1.0,1
922,0,1.0,1,1.7648701667785645,423,0.0,1
923,0,1.0,1,2.2338919639587402,424,1.0,1
924,0,1.0,1,1.8448739051818848,425,1.0,1
925,0,1.0,1,1.1618709564208984,426,0.0,1
926,0,0.0,1,1.6948668956756592,427,1.0,1
927,0,0.0,1,1.926877737045288,428,0.0,1
928,0,0.0,1,1.653864860534668,429,0.0,1
929,0,1.0,1,1.5198663473129272,430,1.0,1
930,0,1.0,1,1.4668669700622559,431,1.0,1
931,0,0.0,1,1.6088652610778809,432,1.0,1
932,0,0.0,1,1.0578722953796387,433,1.0,1
933,0,0.0,1,2.14088773727417,434,1.0,1
934,0,0.0,1,1.915877103805542,435,0.0,1
935,0,1.0,1,1.5328662395477295,436,1.0,1
936,0,0.0,1,1.317868947982788,437,0.0,1
937,0,1.0,1,2.155888319015503,438,1.0,1
938,0,0.0,1,1.7758705615997314,439,0.0,1
939,0,1.0,1,2.0908854007720947,440,1.0,1
940,0,1.0,1,1.4718669652938843,441,0.0,1
941,0,0.0,1,1.4828667640686035,442,0.0,1
942,0,1.0,1,1.925877571105957,443,0.0,1
943,0,1.0,1,1.4758669137954712,444,1.0,1
944,0,1.0,1,1.512866497039795,445,0.0,1
945,0,0.0,1,1.6418647766113281,446,1.0,1
946,0,0.0,1,1.6788661479949951,447,0.0,1
947,0,1.0,1,1.505866527557373,448,0.0,1
948,0,1.0,1,1.8688750267028809,449,0.0,1
949,0,0.0,1,1.1898705959320068,450,0.0,1
950,0,0.0,1,1.5628657341003418,451,1.0,1
951,0,0.0,1,1.0518723726272583,452,0.0,1
952,0,0.0,1,1.3158689737319946,453,1.0,1
953,0,0.0,1,1.2048704624176025,454,0.0,1
954,0,1.0,1,1.3198689222335815,455,0.0,1
955,0,1.0,1,1.605865240097046,456,0.0,1
956,0,0.0,1,2.3278963565826416,457,0.0,1
957,0,1.0,1,1.1898705959320068,458,1.0,1
958,0,1.0,1,1.8128724098205566,459,0.0,1
959,0,1.0,1,1.2898693084716797,460,1.0,1
960,0,1.0,1,1.90787672996521,461,0.0,1
961,0,1.0,1,1.659865140914917,462,1.0,1
962,0,1.0,1,2.136887550354004,463,0.0,1
963,0,0.0,1,1.6348648071289062,464,0.0,1
964,0,1.0,1,1.64286470413208,465,1.0,1
965,0,1.0,1,1.9928808212280273,466,1.0,1
966,0,1.0,1,2.0328826904296875,467,0.0,1
967,0,0.0,1,1.461867094039917,468,1.0,1
968,0,0.0,1,1.5728657245635986,469,0.0,1
969,0,1.0,1,1.941878318786621,470,1.0,1
970,0,1.0,1,1.66886568069458,471,0.0,1
971,0,1.0,1,1.6168651580810547,472,1.0,1
972,0,1.0,1,1.6068651676177979,473,0.0,1
973,0,1.0,1,2.227891683578491,474,1.0,1
974,0,1.0,1,2.0118815898895264,475,1.0,1
975,0,1.0,1,1.7438690662384033,476,1.0,1
976,0,1.0,1,1.5618658065795898,477,1.0,1
977,0,1.0,1,1.2058703899383545,478,0.0,1
978,0,0.0,1,1.5738656520843506,479,0.0,1
979,0,0.0,1,1.487866759300232,480,0.0,1
980,0,1.0,1,1.7678701877593994,481,1.0,1
981,0,1.0,1,1.4258675575256348,482,1.0,1
982,0,1.0,1,1.1628708839416504,483,1.0,1
983,0,1.0,1,1.8518741130828857,484,1.0,1
984,0,1.0,1,1.4788668155670166,485,1.0,1
985,0,1.0,1,1.600865364074707,486,1.0,1
986,0,1.0,1,1.2238701581954956,487,0.0,1
987,0,0.0,1,2.112886428833008,488,0.0,1
988,0,0.0,1,1.8168725967407227,489,1.0,1
989,0,0.0,1,1.0408724546432495,490,1.0,1
990,0,0.0,1,2.127887010574341,491,0.0,1
991,0,0.0,1,2.3698983192443848,492,1.0,1
992,0,1.0,1,1.908876895904541,493,1.0,1
993,0,0.0,1,1.8298730850219727,494,0.0,1
994,0,1.0,1,1.3598684072494507,495,1.0,1
995,0,1.0,1,1.3828680515289307,496,1.0,1
996,0,1.0,1,1.1248713731765747,497,1.0,1
997,0,1.0,1,1.5638657808303833,498,1.0,1
998,0,1.0,1,1.8858757019042969,499,1.0,1
999,0,1.0,1,1.676866054534912,500,0.0,1
1000,0,0.0,2,2.0788848400115967,1,1.0,1
1001,0,0.0,2,1.1298713684082031,2,1.0,1
1002,0,0.0,2,1.7288684844970703,3,1.0,1
1003,0,0.0,2,1.4438673257827759,4,1.0,1
1004,0,0.0,2,2.2208914756774902,5,0.0,1
1005,0,1.0,2,1.9998810291290283,6,1.0,1
1006,0,1.0,2,1.506866455078125,7,0.0,1
1007,0,0.0,2,1.7918713092803955,8,1.0,1
1008,0,0.0,2,0.9858732223510742,9,1.0,1
1009,0,0.0,2,1.5178663730621338,10,0.0,1
1010,0,1.0,2,1.7968716621398926,11,1.0,1
1011,0,1.0,2,1.7128677368164062,12,0.0,1
1012,0,0.0,2,1.3348686695098877,13,1.0,1
1013,0,0.0,2,1.1468710899353027,14,0.0,1
1014,0,0.0,2,1.5908653736114502,15,1.0,1
1015,0,0.0,2,1.45786714553833,16,1.0,1
1016,0,0.0,2,1.082871913909912,17,1.0,1
1017,0,0.0,2,1.882875680923462,18,0.0,1
1018,0,1.0,2,1.9538788795471191,19,0.0,1
1019,0,0.0,2,1.4488673210144043,20,1.0,1
1020,0,0.0,2,2.127887010574341,21,1.0,1
1021,0,0.0,2,1.4638670682907104,22,0.0,1
1022,0,0.0,2,1.3058691024780273,23,1.0,1
1023,0,0.0,2,1.0248726606369019,24,1.0,1
1024,0,0.0,2,1.0818719863891602,25,0.0,1
1025,0,1.0,2,1.911876916885376,26,0.0,1
1026,0,0.0,2,0.9428737163543701,27,0.0,1
1027,0,1.0,2,2.216891288757324,28,0.0,1
1028,0,0.0,2,0.972873330116272,29,1.0,1
1029,0,0.0,2,1.1018717288970947,30,0.0,1
1030,0,0.0,2,1.689866542816162,31,1.0,1
1031,0,1.0,2,2.0188820362091064,32,1.0,1
1032,0,0.0,2,1.9368782043457031,33,1.0,1
1033,0,0.0,2,2.172889232635498,34,0.0,1
1034,0,1.0,2,1.5328662395477295,35,1.0,1
1035,0,1.0,2,1.645864725112915,36,0.0,1
1036,0,1.0,2,2.199890375137329,37,0.0,1
1037,0,1.0,2,1.4268674850463867,38,1.0,1
1038,0,1.0,2,1.901876449584961,39,1.0,1
1039,0,1.0,2,1.1318713426589966,40,1.0,1
1040,0,1.0,2,1.685866355895996,41,0.0,1
1041,0,0.0,2,1.9648795127868652,42,0.0,1
1042,0,0.0,2,2.3038952350616455,43,1.0,1
1043,0,0.0,2,2.210891008377075,44,1.0,1
1044,0,0.0,2,1.671865701675415,45,0.0,1
1045,0,1.0,2,1.4898667335510254,46,1.0,1
1046,0,1.0,2,1.464867115020752,47,0.0,1
1047,0,0.0,2,1.5428659915924072,48,0.0,1
1048,0,0.0,2,1.7148678302764893,49,1.0,1
1049,0,0.0,2,1.1518710851669312,50,0.0,1
1050,0,0.0,2,1.4908666610717773,51,0.0,1
1051,0,0.0,2,1.0728720426559448,52,1.0,1
1052,0,0.0,2,1.4988665580749512,53,1.0,1
1053,0,0.0,2,1.3358687162399292,54,1.0,1
1054,0,0.0,2,0.9268739223480225,55,0.0,1
1055,0,1.0,2,1.5118664503097534,56,0.0,1
1056,0,1.0,2,1.9528789520263672,57,1.0,1
1057,0,1.0,2,1.9498786926269531,58,1.0,1
1058,0,1.0,2,1.889875888824463,59,1.0,1
1059,0,0.0,2,1.8238728046417236,60,1.0,1
1060,0,1.0,2,1.207870364189148,61,0.0,1
1061,0,0.0,2,1.251869797706604,62,1.0,1
1062,0,0.0,2,1.8138723373413086,63,0.0,1
1063,0,1.0,2,2.0228822231292725,64,1.0,1
1064,0,1.0,2,1.557865858078003,65,0.0,1
1065,0,0.0,2,2.169888973236084,66,0.0,1
1066,0,0.0,2,1.4198676347732544,67,0.0,1
1067,0,0.0,2,1.325868844985962,68,0.0,1
1068,0,0.0,2,1.6938667297363281,69,0.0,1
1069,0,0.0,2,1.4008679389953613,70,0.0,1
1070,0,1.0,2,1.7538695335388184,71,0.0,1
1071,0,1.0,2,1.4118677377700806,72,1.0,1
1072,0,0.0,2,1.365868330001831,73,1.0,1
1073,0,1.0,2,1.9758799076080322,74,1.0,1
1074,0,1.0,2,1.897876262664795,75,0.0,1
1075,0,0.0,2,1.108871579170227,76,1.0,1
1076,0,0.0,2,0.946873664855957,77,1.0,1
1077,0,0.0,2,1.1628708839416504,78,0.0,1
1078,0,0.0,2,2.206890821456909,79,0.0,1
1079,0,0.0,2,1.556865930557251,80,1.0,1
1080,0,0.0,2,1.4678670167922974,81,1.0,1
1081,0,0.0,2,1.063872218132019,82,0.0,1
1082,0,0.0,2,1.8668749332427979,83,0.0,1
1083,0,1.0,2,2.2888946533203125,84,0.0,1
1084,0,0.0,2,1.8178725242614746,85,1.0,1
1085,0,0.0,2,0.8738742470741272,86,0.0,1
1086,0,0.0,2,1.7688703536987305,87,1.0,1
1087,0,0.0,2,2.2458925247192383,88,0.0,1
1088,0,0.0,2,1.8438737392425537,89,0.0,1
1089,0,0.0,2,1.882875680923462,90,0.0,1
1090,0,1.0,2,1.2348699569702148,91,0.0,1
1091,0,0.0,2,1.7808709144592285,92,1.0,1
1092,0,0.0,2,1.7658700942993164,93,1.0,1
1093,0,0.0,2,1.4818668365478516,94,0.0,1
1094,0,1.0,2,1.9738798141479492,95,0.0,1
1095,0,0.0,2,1.941878318786621,96,0.0,1
1096,0,0.0,2,1.4328675270080566,97,1.0,1
1097,0,0.0,2,1.4438673257827759,98,0.0,1
1098,0,0.0,2,1.6308648586273193,99,1.0,1
1099,0,0.0,2,1.137871265411377,100,0.0,1
1100,0,1.0,2,2.165888786315918,101,1.0,1
1101,0,1.0,2,2.0938854217529297,102,0.0,1
1102,0,1.0,2,1.4768669605255127,103,1.0,1
1103,0,1.0,2,1.4528672695159912,104,1.0,1
1104,0,1.0,2,1.31886887550354,105,0.0,1
1105,0,0.0,2,1.549865961074829,106,0.0,1
1106,0,1.0,2,1.5488660335540771,107,0.0,1
1107,0,1.0,2,2.0448832511901855,108,0.0,1
1108,0,0.0,2,1.8388736248016357,109,0.0,1
1109,0,0.0,2,1.5438660383224487,110,0.0,1
1110,0,1.0,2,1.4498672485351562,111,1.0,1
1111,0,1.0,2,1.5838655233383179,112,0.0,1
1112,0,1.0,2,2.2618932723999023,113,1.0,1
1113,0,1.0,2,2.216891288757324,114,1.0,1
1114,0,1.0,2,2.0808849334716797,115,0.0,1
1115,0,0.0,2,1.6398648023605347,116,1.0,1
1116,0,0.0,2,1.1658709049224854,117,1.0,1
1117,0,0.0,2,1.8798754215240479,118,1.0,1
1118,0,0.0,2,1.4158676862716675,119,0.0,1
1119,0,0.0,2,1.8098721504211426,120,1.0,1
1120,0,0.0,2,0.901874303817749,121,0.0,1
1121,0,0.0,2,1.6408648490905762,122,1.0,1
1122,0,0.0,2,1.184870719909668,123,0.0,1
1123,0,0.0,2,1.888875961303711,124,1.0,1
1124,0,0.0,2,1.410867691040039,125,1.0,1
1125,0,0.0,2,1.1198714971542358,126,1.0,1
1126,0,0.0,2,1.2928693294525146,127,0.0,1
1127,0,1.0,2,1.8068721294403076,128,0.0,1
1128,0,1.0,2,1.7568697929382324,129,1.0,1
1129,0,1.0,2,1.277869462966919,130,0.0,1
1130,0,0.0,2,0.9408737421035767,131,1.0,1
1131,0,0.0,2,1.7478692531585693,132,1.0,1
1132,0,0.0,2,1.0888718366622925,133,1.0,1
1133,0,0.0,2,1.674865961074829,134,1.0,1
1134,0,0.0,2,1.4898667335510254,135,0.0,1
1135,0,0.0,2,1.464867115020752,136,1.0,1
1136,0,0.0,2,1.3978679180145264,137,0.0,1
1137,0,1.0,2,1.649864673614502,138,1.0,1
1138,0,1.0,2,1.413867712020874,139,0.0,1
1139,0,0.0,2,2.0568838119506836,140,1.0,1
1140,0,0.0,2,1.1958705186843872,141,1.0,1
1141,0,0.0,2,1.7508695125579834,142,1.0,1
1142,0,0.0,2,1.0188727378845215,143,0.0,1
1143,0,1.0,2,1.5188663005828857,144,1.0,1
1144,0,1.0,2,1.7838709354400635,145,0.0,1
1145,0,1.0,2,1.4748668670654297,146,0.0,1
1146,0,0.0,2,1.3618683815002441,147,0.0,1
1147,0,0.0,2,1.4938666820526123,148,1.0,1
1148,0,0.0,2,1.7668702602386475,149,0.0,1
1149,0,1.0,2,1.2968692779541016,150,1.0,1
1150,0,1.0,2,2.1118862628936768,151,1.0,1
1151,0,1.0,2,1.512866497039795,152,1.0,1
1152,0,1.0,2,1.605865240097046,153,0.0,1
1153,0,0.0,2,1.7918713092803955,154,0.0,1
1154,0,1.0,2,1.2948691844940186,155,1.0,1
1155,0,1.0,2,1.7778706550598145,156,0.0,1
1156,0,1.0,2,1.7258682250976562,157,1.0,1
1157,0,0.0,2,1.4408674240112305,158,1.0,1
1158,0,0.0,2,2.2868945598602295,159,1.0,1
1159,0,0.0,2,1.884875774383545,160,0.0,1
1160,0,1.0,2,1.138871192932129,161,1.0,1
1161,0,1.0,2,1.7548696994781494,162,0.0,1
1162,0,1.0,2,2.20089054107666,163,0.0,1
1163,0,0.0,2,2.0278823375701904,164,0.0,1
1164,0,1.0,2,2.0458831787109375,165,1.0,1
1165,0,1.0,2,2.204890727996826,166,0.0,1
1166,0,1.0,2,1.4868667125701904,167,0.0,1
1167,0,0.0,2,1.6138651371002197,168,0.0,1
1168,0,0.0,2,2.0038812160491943,169,0.0,1
1169,0,1.0,2,2.12088680267334,170,0.0,1
1170,0,0.0,2,1.645864725112915,171,0.0,1
1171,0,1.0,2,1.414867639541626,172,1.0,1
1172,0,1.0,2,1.4058678150177002,173,0.0,1
1173,0,1.0,2,1.7118675708770752,174,0.0,1
1174,0,0.0,2,1.502866506576538,175,0.0,1
1175,0,0.0,2,1.8308732509613037,176,1.0,1
1176,0,0.0,2,1.6868665218353271,177,0.0,1
1177,0,0.0,2,1.7318685054779053,178,1.0,1
1178,0,0.0,2,2.0248823165893555,179,0.0,1
1179,0,1.0,2,1.911876916885376,180,0.0,1
1180,0,1.0,2,1.3038691282272339,181,1.0,1
1181,0,1.0,2,1.6328649520874023,182,0.0,1
1182,0,0.0,2,1.6168651580810547,183,0.0,1
1183,0,1.0,2,1.9798800945281982,184,1.0,1
1184,0,1.0,2,1.7408690452575684,185,1.0,1
1185,0,1.0,2,1.597865343093872,186,0.0,1
1186,0,1.0,2,1.3988678455352783,187,0.0,1
1187,0,1.0,2,1.3678683042526245,188,1.0,1
1188,0,1.0,2,1.4938666820526123,189,0.0,1
1189,0,0.0,2,1.2938692569732666,190,0.0,1
1190,0,0.0,2,1.2438699007034302,191,0.0,1
1191,0,0.0,2,1.1048716306686401,192,0.0,1
1192,0,1.0,2,1.8518741130828857,193,0.0,1
1193,0,0.0,2,1.7168679237365723,194,1.0,1
1194,0,0.0,2,0.9418737888336182,195,0.0,1
1195,0,0.0,2,1.0708720684051514,196,0.0,1
1196,0,0.0,2,1.7038671970367432,197,1.0,1
1197,0,0.0,2,1.2868692874908447,198,0.0,1
1198,0,1.0,2,1.8668749332427979,199,0.0,1
1199,0,1.0,2,1.2578697204589844,200,0.0,1
1200,0,1.0,2,1.878875494003296,201,1.0,1
1201,0,1.0,2,1.2628695964813232,202,0.0,1
1202,0,0.0,2,2.0308825969696045,203,1.0,1
1203,0,0.0,2,1.0408724546432495,204,0.0,1
1204,0,0.0,2,1.343868613243103,205,1.0,1
1205,0,0.0,2,1.504866600036621,206,0.0,1
1206,0,0.0,2,1.2368700504302979,207,1.0,1
1207,0,0.0,2,0.9628734588623047,208,1.0,1
1208,0,0.0,2,1.229870080947876,209,0.0,1
1209,0,1.0,2,2.0108816623687744,210,0.0,1
1210,0,0.0,2,1.7008671760559082,211,1.0,1
1211,0,0.0,2,1.364868402481079,212,1.0,1
1212,0,0.0,2,1.372868299484253,213,0.0,1
1213,0,0.0,2,1.2098703384399414,214,1.0,1
1214,0,0.0,2,1.888875961303711,215,0.0,1
1215,0,1.0,2,2.13388729095459,216,0.0,1
1216,0,0.0,2,1.4048678874969482,217,0.0,1
1217,0,0.0,2,1.4488673210144043,218,1.0,1
1218,0,1.0,2,1.926877737045288,219,1.0,1
1219,0,1.0,2,1.5408661365509033,220,0.0,1
1220,0,0.0,2,1.4778668880462646,221,1.0,1
1221,0,0.0,2,1.2648696899414062,222,0.0,1
1222,0,0.0,2,1.889875888824463,223,0.0,1
1223,0,0.0,2,1.5478659868240356,224,0.0,1
1224,0,1.0,2,2.1038858890533447,225,1.0,1
1225,0,1.0,2,1.502866506576538,226,1.0,1
1226,0,1.0,2,1.5618658065795898,227,1.0,1
1227,0,1.0,2,1.7618699073791504,228,1.0,1
1228,0,1.0,2,1.7288684844970703,229,0.0,1
1229,0,1.0,2,1.9728798866271973,230,0.0,1
1230,0,0.0,2,2.0918853282928467,231,0.0,1
1231,0,0.0,2,1.1708707809448242,232,0.0,1
1232,0,0.0,2,1.554865837097168,233,0.0,1
1233,0,1.0,2,1.9758799076080322,234,0.0,1
1234,0,1.0,2,1.5718656778335571,235,1.0,1
1235,0,1.0,2,1.37086820602417,236,0.0,1
1236,0,0.0,2,1.901876449584961,237,0.0,1
1237,0,1.0,2,1.7798707485198975,238,0.0,1
1238,0,0.0,2,1.3888680934906006,239,1.0,1
1239,0,0.0,2,1.0748720169067383,240,0.0,1
1240,0,0.0,2,2.3548977375030518,241,0.0,1
1241,0,1.0,2,1.9908807277679443,242,1.0,1
1242,0,1.0,2,1.4718669652938843,243,0.0,1
1243,0,0.0,2,1.4678670167922974,244,0.0,1
1244,0,1.0,2,1.6908667087554932,245,1.0,1
1245,0,1.0,2,2.157888412475586,246,0.0,1
1246,0,0.0,2,1.9368782043457031,247,1.0,1
1247,0,0.0,2,2.1118862628936768,248,0.0,1
1248,0,0.0,2,1.7488694190979004,249,0.0,1
1249,0,0.0,2,1.1358712911605835,250,0.0,1
1250,0,1.0,2,1.9508788585662842,251,1.0,1
1251,0,1.0,2,2.0598838329315186,252,1.0,1
1252,0,1.0,2,1.412867784500122,253,0.0,1
1253,0,0.0,2,1.1798707246780396,254,0.0,1
1254,0,1.0,2,2.166888952255249,255,1.0,1
1255,0,1.0,2,2.3178958892822266,256,1.0,1
1256,0,1.0,2,1.915877103805542,257,1.0,1
1257,0,0.0,2,1.8638746738433838,258,0.0,1
1258,0,1.0,2,1.5808656215667725,259,0.0,1
1259,0,0.0,2,1.155871033668518,260,0.0,1
1260,0,0.0,2,2.175889253616333,261,1.0,1
1261,0,1.0,2,1.229870080947876,262,1.0,1
1262,0,1.0,2,1.5958653688430786,263,0.0,1
1263,0,0.0,2,1.3348686695098877,264,0.0,1
1264,0,0.0,2,1.7758705615997314,265,0.0,1
1265,0,0.0,2,1.8858757019042969,266,0.0,1
1266,0,0.0,2,2.0288825035095215,267,0.0,1
1267,0,0.0,2,1.600865364074707,268,0.0,1
1268,0,1.0,2,1.9498786926269531,269,1.0,1
1269,0,1.0,2,1.6958668231964111,270,1.0,1
1270,0,1.0,2,2.174889326095581,271,1.0,1
1271,0,1.0,2,1.6418647766113281,272,0.0,1
1272,0,1.0,2,1.8618745803833008,273,0.0,1
1273,0,0.0,2,1.7368688583374023,274,0.0,1
1274,0,0.0,2,1.7918713092803955,275,0.0,1
1275,0,1.0,2,1.3948678970336914,276,1.0,1
1276,0,1.0,2,1.550865888595581,277,0.0,1
1277,0,1.0,2,2.0658841133117676,278,1.0,1
1278,0,1.0,2,2.0678842067718506,279,0.0,1
1279,0,1.0,2,1.889875888824463,280,0.0,1
1280,0,1.0,2,1.5428659915924072,281,0.0,1
1281,0,0.0,2,1.5388660430908203,282,0.0,1
1282,0,0.0,2,1.2868692874908447,283,0.0,1
1283,0,0.0,2,1.6248650550842285,284,1.0,1
1284,0,0.0,2,1.7748706340789795,285,1.0,1
1285,0,0.0,2,1.4808669090270996,286,0.0,1
1286,0,0.0,2,1.4758669137954712,287,0.0,1
1287,0,1.0,2,1.6418647766113281,288,1.0,1
1288,0,1.0,2,1.3798681497573853,289,0.0,1
1289,0,0.0,2,1.1458711624145508,290,1.0,1
1290,0,0.0,2,1.5998653173446655,291,0.0,1
1291,0,1.0,2,2.2348921298980713,292,1.0,1
1292,0,0.0,2,1.9958808422088623,293,0.0,1
1293,0,1.0,2,1.1578710079193115,294,0.0,1
1294,0,0.0,2,1.508866548538208,295,1.0,1
1295,0,0.0,2,1.4218676090240479,296,0.0,1
1296,0,0.0,2,2.3338966369628906,297,1.0,1
1297,0,1.0,2,2.2338919639587402,298,0.0,1
1298,0,0.0,2,1.3158689737319946,299,1.0,1
1299,0,0.0,2,1.365868330001831,300,0.0,1
1300,0,0.0,2,1.1288713216781616,301,1.0,1
1301,0,0.0,2,1.1908705234527588,302,0.0,1
1302,0,0.0,2,1.31886887550354,303,1.0,1
1303,0,0.0,2,1.7758705615997314,304,0.0,1
1304,0,1.0,2,2.2988951206207275,305,0.0,1
1305,0,0.0,2,1.7258682250976562,306,0.0,1
1306,0,1.0,2,1.4378674030303955,307,0.0,1
1307,0,0.0,2,1.8528742790222168,308,0.0,1
1308,0,0.0,2,2.0418829917907715,309,0.0,1
1309,0,1.0,2,1.4928667545318604,310,0.0,1
1310,0,0.0,2,1.3158689737319946,311,1.0,1
1311,0,0.0,2,1.3488686084747314,312,0.0,1
1312,0,1.0,2,1.905876636505127,313,0.0,1
1313,0,0.0,2,1.2588696479797363,314,1.0,1
1314,0,0.0,2,1.2988691329956055,315,1.0,1
1315,0,0.0,2,1.4698669910430908,316,0.0,1
1316,0,0.0,2,1.5038665533065796,317,0.0,1
1317,0,0.0,2,2.0758845806121826,318,0.0,1
1318,0,0.0,2,1.2698695659637451,319,0.0,1
1319,0,1.0,2,1.9878804683685303,320,1.0,1
1320,0,0.0,2,2.3228962421417236,321,1.0,1
1321,0,0.0,2,1.3618683815002441,322,0.0,1
1322,0,0.0,2,1.906876802444458,323,0.0,1
1323,0,1.0,2,1.138871192932129,324,0.0,1
1324,0,0.0,2,1.554865837097168,325,1.0,1
1325,0,0.0,2,1.3968679904937744,326,0.0,1
1326,0,1.0,2,1.650864839553833,327,0.0,1
1327,0,0.0,2,2.1138863563537598,328,0.0,1
1328,0,0.0,2,1.1668708324432373,329,1.0,1
1329,0,0.0,2,1.4548671245574951,330,0.0,1
1330,0,0.0,2,2.0838849544525146,331,0.0,1
1331,0,1.0,2,1.280869483947754,332,1.0,1
1332,0,1.0,2,1.4018678665161133,333,0.0,1
1333,0,0.0,2,1.1878706216812134,334,1.0,1
1334,0,0.0,2,1.1528711318969727,335,0.0,1
1335,0,0.0,2,1.8058719635009766,336,0.0,1
1336,0,1.0,2,2.0988857746124268,337,1.0,1
1337,0,1.0,2,1.5928654670715332,338,1.0,1
1338,0,1.0,2,1.3678683042526245,339,1.0,1
1339,0,1.0,2,1.7548696994781494,340,1.0,1
1340,0,1.0,2,1.1628708839416504,341,1.0,1
1341,0,1.0,2,1.8058719635009766,342,1.0,1
1342,0,1.0,2,1.1868705749511719,343,1.0,1
1343,0,1.0,2,1.8368735313415527,344,1.0,1
1344,0,1.0,2,1.5488660335540771,345,0.0,1
1345,0,0.0,2,1.317868947982788,346,1.0,1
1346,0,0.0,2,1.3588683605194092,347,0.0,1
1347,0,0.0,2,1.6268649101257324,348,0.0,1
1348,0,1.0,2,1.8488740921020508,349,1.0,1
1349,0,1.0,2,2.129887104034424,350,0.0,1
1350,0,0.0,2,2.0838849544525146,351,1.0,1
1351,0,1.0,2,1.8368735313415527,352,0.0,1
1352,0,0.0,2,1.251869797706604,353,1.0,1
1353,0,0.0,2,1.1918705701828003,354,1.0,1
1354,0,0.0,2,1.1198714971542358,355,1.0,1
1355,0,0.0,2,1.1918705701828003,356,1.0,1
1356,0,0.0,2,1.6318649053573608,357,0.0,1
1357,0,0.0,2,1.7828710079193115,358,0.0,1
1358,0,0.0,2,1.7598698139190674,359,0.0,1
1359,0,0.0,2,1.8638746738433838,360,0.0,1
1360,0,1.0,2,1.9818801879882812,361,0.0,1
1361,0,0.0,2,1.939878225326538,362,0.0,1
1362,0,0.0,2,1.2238701581954956,363,1.0,1
1363,0,0.0,2,1.276869535446167,364,1.0,1
1364,0,1.0,2,1.6118651628494263,365,1.0,1
1365,0,0.0,2,1.3048691749572754,366,0.0,1
1366,0,0.0,2,2.0378828048706055,367,0.0,1
1367,0,1.0,2,2.0618839263916016,368,1.0,1
1368,0,1.0,2,1.4918667078018188,369,0.0,1
1369,0,0.0,2,2.142887830734253,370,1.0,1
1370,0,0.0,2,1.3308687210083008,371,1.0,1
1371,0,0.0,2,1.915877103805542,372,1.0,1
1372,0,0.0,2,1.3098690509796143,373,1.0,1
1373,0,0.0,2,1.605865240097046,374,1.0,1
1374,0,0.0,2,0.9108741283416748,375,0.0,1
1375,0,0.0,2,1.4948666095733643,376,1.0,1
1376,0,0.0,2,1.107871651649475,377,1.0,1
1377,0,0.0,2,1.8528742790222168,378,1.0,1
1378,0,0.0,2,2.0658841133117676,379,1.0,1
1379,0,0.0,2,2.0228822231292725,380,0.0,1
1380,0,0.0,2,2.0748846530914307,381,0.0,1
1381,0,1.0,2,1.0558723211288452,382,1.0,1
1382,0,1.0,2,1.5658657550811768,383,0.0,1
1383,0,0.0,2,1.224870204925537,384,0.0,1
1384,0,0.0,2,1.7928714752197266,385,1.0,1
1385,0,0.0,2,1.3468685150146484,386,0.0,1
1386,0,0.0,2,1.943878412246704,387,1.0,1
1387,0,0.0,2,1.4558671712875366,388,0.0,1
1388,0,0.0,2,1.6388647556304932,389,0.0,1
1389,0,0.0,2,0.9808732271194458,390,0.0,1
1390,0,0.0,2,1.3298687934875488,391,0.0,1
1391,0,0.0,2,1.923877477645874,392,0.0,1
1392,0,1.0,2,2.157888412475586,393,1.0,1
1393,0,0.0,2,1.6788661479949951,394,1.0,1
1394,0,1.0,2,1.575865626335144,395,1.0,1
1395,0,0.0,2,1.3268687725067139,396,0.0,1
1396,0,0.0,2,1.3148689270019531,397,1.0,1
1397,0,0.0,2,1.5428659915924072,398,1.0,1
1398,0,1.0,2,1.904876708984375,399,0.0,1
1399,0,0.0,2,1.906876802444458,400,0.0,1
1400,0,1.0,2,1.926877737045288,401,1.0,1
1401,0,1.0,2,1.627864956855774,402,1.0,1
1402,0,0.0,2,1.9708797931671143,403,0.0,1
1403,0,1.0,2,1.7848711013793945,404,1.0,1
1404,0,1.0,2,1.4988665580749512,405,1.0,1
1405,0,0.0,2,1.7138676643371582,406,0.0,1
1406,0,1.0,2,1.8878757953643799,407,1.0,1
1407,0,1.0,2,2.0198819637298584,408,0.0,1
1408,0,0.0,2,2.214891195297241,409,1.0,1
1409,0,0.0,2,1.4048678874969482,410,0.0,1
1410,0,0.0,2,1.502866506576538,411,1.0,1
1411,0,0.0,2,1.6098651885986328,412,0.0,1
1412,0,0.0,2,2.0668842792510986,413,0.0,1
1413,0,0.0,2,1.417867660522461,414,0.0,1
1414,0,0.0,2,2.162888765335083,415,1.0,1
1415,0,0.0,2,1.5008666515350342,416,0.0,1
1416,0,0.0,2,1.7948715686798096,417,0.0,1
1417,0,1.0,2,1.9348781108856201,418,0.0,1
1418,0,0.0,2,1.2548696994781494,419,0.0,1
1419,0,0.0,2,2.0958855152130127,420,0.0,1
1420,0,0.0,2,1.8158724308013916,421,0.0,1
1421,0,0.0,2,1.3868680000305176,422,0.0,1
1422,0,1.0,2,1.4818668365478516,423,0.0,1
1423,0,0.0,2,1.5718656778335571,424,1.0,1
1424,0,0.0,2,1.6398648023605347,425,0.0,1
1425,0,0.0,2,1.7898712158203125,426,1.0,1
1426,0,0.0,2,1.391867995262146,427,0.0,1
1427,0,0.0,2,1.3848681449890137,428,0.0,1
1428,0,1.0,2,1.8218727111816406,429,1.0,1
1429,0,1.0,2,1.1468710899353027,430,0.0,1
1430,0,1.0,2,2.169888973236084,431,1.0,1
1431,0,0.0,2,1.8038718700408936,432,1.0,1
1432,0,0.0,2,1.943878412246704,433,0.0,1
1433,0,1.0,2,1.4938666820526123,434,1.0,1
1434,0,1.0,2,1.7978715896606445,435,0.0,1
1435,0,0.0,2,1.886875867843628,436,0.0,1
1436,0,1.0,2,1.7598698139190674,437,0.0,1
1437,0,0.0,2,1.4548671245574951,438,1.0,1
1438,0,0.0,2,1.0948717594146729,439,1.0,1
1439,0,0.0,2,2.2948949337005615,440,0.0,1
1440,0,0.0,2,2.0758845806121826,441,1.0,1
1441,0,0.0,2,1.7148678302764893,442,1.0,1
1442,0,0.0,2,1.3158689737319946,443,0.0,1
1443,0,1.0,2,2.0678842067718506,444,0.0,1
1444,0,1.0,2,2.0588839054107666,445,0.0,1
1445,0,1.0,2,2.0768847465515137,446,0.0,1
1446,0,0.0,2,1.669865608215332,447,1.0,1
1447,0,1.0,2,2.413900375366211,448,1.0,1
1448,0,1.0,2,2.394899606704712,449,0.0,1
1449,0,0.0,2,2.2518928050994873,450,0.0,1
1450,0,0.0,2,1.8408737182617188,451,0.0,1
1451,0,0.0,2,1.5668656826019287,452,0.0,1
1452,0,1.0,2,1.8498740196228027,453,0.0,1
1453,0,1.0,2,1.9728798866271973,454,1.0,1
1454,0,1.0,2,1.228870153427124,455,1.0,1
1455,0,1.0,2,1.6408648490905762,456,1.0,1
1456,0,1.0,2,2.0638840198516846,457,0.0,1
1457,0,0.0,2,2.0538835525512695,458,0.0,1
1458,0,1.0,2,1.29586923122406,459,1.0,1
1459,0,1.0,2,2.0798847675323486,460,1.0,1
1460,0,1.0,2,1.654865026473999,461,1.0,1
1461,0,1.0,2,1.8598744869232178,462,1.0,1
1462,0,1.0,2,2.0188820362091064,463,1.0,1
1463,0,0.0,2,1.2828693389892578,464,1.0,1
1464,0,0.0,2,1.9818801879882812,465,0.0,1
1465,0,1.0,2,2.0768847465515137,466,1.0,1
1466,0,1.0,2,1.2948691844940186,467,0.0,1
1467,0,0.0,2,1.9388782978057861,468,0.0,1
1468,0,0.0,2,1.1068716049194336,469,0.0,1
1469,0,0.0,2,1.0718721151351929,470,0.0,1
1470,0,0.0,2,1.0068728923797607,471,0.0,1
1471,0,0.0,2,0.9768732786178589,472,1.0,1
1472,0,0.0,2,1.3808681964874268,473,0.0,1
1473,0,1.0,2,1.7158677577972412,474,1.0,1
1474,0,1.0,2,1.7208681106567383,475,1.0,1
1475,0,0.0,2,1.4898667335510254,476,0.0,1
1476,0,1.0,2,1.0578722953796387,477,0.0,1
1477,0,0.0,2,1.9828803539276123,478,0.0,1
1478,0,0.0,2,1.3468685150146484,479,0.0,1
1479,0,1.0,2,1.8358733654022217,480,1.0,1
1480,0,1.0,2,1.4908666610717773,481,1.0,1
1481,0,1.0,2,2.225891590118408,482,1.0,1
1482,0,1.0,2,1.177870750427246,483,1.0,1
1483,0,0.0,2,1.3978679180145264,484,1.0,1
1484,0,0.0,2,2.188889980316162,485,0.0,1
1485,0,1.0,2,1.4018678665161133,486,1.0,1
1486,0,1.0,2,2.165888786315918,487,0.0,1
1487,0,1.0,2,1.461867094039917,488,0.0,1
1488,0,1.0,2,1.8578743934631348,489,1.0,1
1489,0,0.0,2,1.9688796997070312,490,1.0,1
1490,0,1.0,2,1.369868278503418,491,1.0,1
1491,0,0.0,2,1.657865047454834,492,0.0,1
1492,0,0.0,2,1.5938653945922852,493,0.0,1
1493,0,1.0,2,1.6248650550842285,494,1.0,1
1494,0,0.0,2,1.5178663730621338,495,0.0,1
1495,0,1.0,2,1.5768656730651855,496,0.0,1
1496,0,1.0,2,2.0728845596313477,497,1.0,1
1497,0,1.0,2,1.273869514465332,498,1.0,1
1498,0,1.0,2,1.31886887550354,499,0.0,1
1499,0,0.0,2,1.7448692321777344,500,1.0,1
1500,1,1.0,0,2.141319751739502,1,1.0,1
1501,1,1.0,0,1.405304193496704,2,1.0,1
1502,1,1.0,0,1.8633067607879639,3,1.0,1
1503,1,1.0,0,1.276305913925171,4,0.0,1
1504,1,1.0,0,1.6653008460998535,5,1.0,1
1505,1,0.0,0,2.2903265953063965,6,1.0,1
1506,1,0.0,0,1.0143091678619385,7,0.0,1
1507,1,1.0,0,1.8243048191070557,8,1.0,1
1508,1,1.0,0,2.3253283500671387,9,1.0,1
1509,1,1.0,0,1.1763070821762085,10,1.0,1
1510,1,1.0,0,1.2023067474365234,11,1.0,1
1511,1,1.0,0,1.4973030090332031,12,1.0,1
1512,1,1.0,0,1.9613113403320312,13,1.0,1
1513,1,1.0,0,1.5163028240203857,14,0.0,1
1514,1,1.0,0,1.5423023700714111,15,1.0,1
1515,1,1.0,0,1.4043042659759521,16,1.0,1
1516,1,1.0,0,1.5863018035888672,17,1.0,1
1517,1,1.0,0,1.4853031635284424,18,1.0,1
1518,1,1.0,0,1.5133028030395508,19,1.0,1
1519,1,1.0,0,1.50130295753479,20,0.0,1
1520,1,0.0,0,2.2253236770629883,21,0.0,1
1521,1,0.0,0,2.218323230743408,22,1.0,1
1522,1,0.0,0,1.8443057537078857,23,0.0,1
1523,1,0.0,0,1.8333053588867188,24,0.0,1
1524,1,1.0,0,1.7483012676239014,25,1.0,1
1525,1,1.0,0,1.4943029880523682,26,0.0,1
1526,1,0.0,0,1.3733046054840088,27,0.0,1
1527,1,0.0,0,2.2433245182037354,28,0.0,1
1528,1,1.0,0,1.3783044815063477,29,1.0,1
1529,1,1.0,0,1.5853018760681152,30,0.0,1
1530,1,1.0,0,1.6393011808395386,31,1.0,1
1531,1,1.0,0,2.0653162002563477,32,0.0,1
1532,1,0.0,0,2.466334819793701,33,0.0,1
1533,1,1.0,0,1.5773019790649414,34,1.0,1
1534,1,1.0,0,1.3263051509857178,35,1.0,1
1535,1,1.0,0,1.3313051462173462,36,0.0,1
1536,1,1.0,0,2.0523154735565186,37,1.0,1
1537,1,1.0,0,1.3903043270111084,38,1.0,1
1538,1,1.0,0,1.875307321548462,39,0.0,1
1539,1,1.0,0,1.7243001461029053,40,1.0,1
1540,1,1.0,0,1.6223013401031494,41,1.0,1
1541,1,1.0,0,1.4553035497665405,42,1.0,1
1542,1,1.0,0,1.4943029880523682,43,1.0,1
1543,1,0.0,0,1.034308910369873,44,0.0,1
1544,1,1.0,0,1.1103079319000244,45,1.0,1
1545,1,1.0,0,1.2633060216903687,46,1.0,1
1546,1,1.0,0,1.6203014850616455,47,1.0,1
1547,1,1.0,0,1.3073054552078247,48,1.0,1
1548,1,1.0,0,1.314305305480957,49,1.0,1
1549,1,1.0,0,1.2903056144714355,50,1.0,1
1550,1,1.0,0,1.3543047904968262,51,1.0,1
1551,1,1.0,0,1.1763070821762085,52,0.0,1
1552,1,1.0,0,2.177321434020996,53,1.0,1
1553,1,1.0,0,1.4453036785125732,54,1.0,1
1554,1,1.0,0,1.435303807258606,55,1.0,1
1555,1,1.0,0,1.2813057899475098,56,1.0,1
1556,1,1.0,0,1.4843032360076904,57,0.0,1
1557,1,0.0,0,2.214323043823242,58,0.0,1
1558,1,1.0,0,1.925309658050537,59,1.0,1
1559,1,1.0,0,1.9993131160736084,60,1.0,1
1560,1,1.0,0,1.4023041725158691,61,1.0,1
1561,1,1.0,0,1.4703032970428467,62,1.0,1
1562,1,1.0,0,1.3243052959442139,63,0.0,1
1563,1,0.0,0,1.7423009872436523,64,0.0,1
1564,1,0.0,0,1.9713118076324463,65,0.0,1
1565,1,0.0,0,2.134319305419922,66,0.0,1
1566,1,1.0,0,2.3263282775878906,67,1.0,1
1567,1,0.0,0,1.5203027725219727,68,0.0,1
1568,1,1.0,0,1.4683034420013428,69,1.0,1
1569,1,1.0,0,1.1023080348968506,70,1.0,1
1570,1,1.0,0,1.4813032150268555,71,1.0,1
1571,1,1.0,0,1.2613060474395752,72,1.0,1
1572,1,1.0,0,1.5093028545379639,73,1.0,1
1573,1,1.0,0,1.552302360534668,74,1.0,1
1574,1,1.0,0,1.64030122756958,75,0.0,1
1575,1,1.0,0,1.3033055067062378,76,1.0,1
1576,1,1.0,0,1.888307809829712,77,1.0,1
1577,1,1.0,0,1.8423056602478027,78,0.0,1
1578,1,1.0,0,1.7483012676239014,79,1.0,1
1579,1,1.0,0,1.2423062324523926,80,0.0,1
1580,1,0.0,0,1.8073041439056396,81,0.0,1
1581,1,0.0,0,2.0683162212371826,82,1.0,1
1582,1,0.0,0,1.3543047904968262,83,0.0,1
1583,1,1.0,0,1.4303038120269775,84,1.0,1
1584,1,1.0,0,1.923309564590454,85,1.0,1
1585,1,1.0,0,1.6663007736206055,86,1.0,1
1586,1,1.0,0,1.8673069477081299,87,1.0,1
1587,1,1.0,0,2.445333957672119,88,1.0,1
1588,1,1.0,0,1.2423062324523926,89,1.0,1
1589,1,1.0,0,1.2233065366744995,90,1.0,1
1590,1,1.0,0,2.120318651199341,91,1.0,1
1591,1,1.0,0,1.4803032875061035,92,1.0,1
1592,1,1.0,0,1.5583021640777588,93,1.0,1
1593,1,1.0,0,1.594301700592041,94,1.0,1
1594,1,1.0,0,1.8633067607879639,95,0.0,1
1595,1,1.0,0,1.615301489830017,96,1.0,1
1596,1,1.0,0,1.6553009748458862,97,1.0,1
1597,1,1.0,0,1.1133079528808594,98,1.0,1
1598,1,1.0,0,1.899308443069458,99,0.0,1
1599,1,1.0,0,1.7263002395629883,100,1.0,1
1600,1,1.0,0,1.904308557510376,101,1.0,1
1601,1,1.0,0,1.69230055809021,102,1.0,1
1602,1,1.0,0,1.5513023138046265,103,1.0,1
1603,1,1.0,0,1.17730712890625,104,1.0,1
1604,1,1.0,0,1.5103027820587158,105,1.0,1
1605,1,1.0,0,1.2103066444396973,106,1.0,1
1606,1,1.0,0,1.7063002586364746,107,1.0,1
1607,1,1.0,0,1.1593073606491089,108,1.0,1
1608,1,1.0,0,1.884307622909546,109,1.0,1
1609,1,1.0,0,1.4683034420013428,110,1.0,1
1610,1,1.0,0,1.4173040390014648,111,0.0,1
1611,1,0.0,0,2.0273144245147705,112,0.0,1
1612,1,0.0,0,1.8103041648864746,113,0.0,1
1613,1,1.0,0,2.0713164806365967,114,1.0,1
1614,1,1.0,0,1.897308349609375,115,1.0,1
1615,1,1.0,0,1.4883031845092773,116,1.0,1
1616,1,1.0,0,1.6563010215759277,117,1.0,1
1617,1,1.0,0,1.5653021335601807,118,1.0,1
1618,1,1.0,0,1.7873032093048096,119,1.0,1
1619,1,1.0,0,1.5143027305603027,120,1.0,1
1620,1,1.0,0,1.2613060474395752,121,1.0,1
1621,1,1.0,0,1.9613113403320312,122,1.0,1
1622,1,1.0,0,1.3793045282363892,123,1.0,1
1623,1,1.0,0,1.523302674293518,124,1.0,1
1624,1,1.0,0,2.0123136043548584,125,0.0,1
1625,1,0.0,0,1.883307695388794,126,0.0,1
1626,1,0.0,0,1.5673021078109741,127,0.0,1
1627,1,1.0,0,1.2643060684204102,128,1.0,1
1628,1,1.0,0,1.2873057126998901,129,1.0,1
1629,1,1.0,0,1.905308723449707,130,1.0,1
1630,1,1.0,0,1.898308277130127,131,1.0,1
1631,1,1.0,0,1.8023037910461426,132,1.0,1
1632,1,1.0,0,1.685300588607788,133,1.0,1
1633,1,1.0,0,1.7363007068634033,134,1.0,1
1634,1,1.0,0,1.0573086738586426,135,1.0,1
1635,1,1.0,0,1.4553035497665405,136,1.0,1
1636,1,1.0,0,1.6603009700775146,137,1.0,1
1637,1,1.0,0,1.36830472946167,138,1.0,1
1638,1,1.0,0,1.5593022108078003,139,1.0,1
1639,1,1.0,0,1.5253026485443115,140,1.0,1
1640,1,1.0,0,1.7023003101348877,141,1.0,1
1641,1,1.0,0,1.3553048372268677,142,1.0,1
1642,1,1.0,0,1.4303038120269775,143,1.0,1
1643,1,1.0,0,1.2893056869506836,144,1.0,1
1644,1,1.0,0,1.5653021335601807,145,1.0,1
1645,1,1.0,0,1.1943068504333496,146,1.0,1
1646,1,1.0,0,1.6143014430999756,147,1.0,1
1647,1,1.0,0,1.2523062229156494,148,1.0,1
1648,1,1.0,0,2.2313239574432373,149,1.0,1
1649,1,1.0,0,1.1703071594238281,150,1.0,1
1650,1,1.0,0,1.412304162979126,151,1.0,1
1651,1,1.0,0,1.3333051204681396,152,1.0,1
1652,1,1.0,0,1.6653008460998535,153,1.0,1
1653,1,1.0,0,1.4343037605285645,154,1.0,1
1654,1,1.0,0,1.483303189277649,155,1.0,1
1655,1,1.0,0,1.3983042240142822,156,0.0,1
1656,1,1.0,0,2.2763259410858154,157,1.0,1
1657,1,1.0,0,1.552302360534668,158,1.0,1
1658,1,1.0,0,1.3523049354553223,159,1.0,1
1659,1,1.0,0,2.0443150997161865,160,1.0,1
1660,1,1.0,0,1.224306583404541,161,1.0,1
1661,1,1.0,0,1.0173091888427734,162,1.0,1
1662,1,1.0,0,1.2153066396713257,163,1.0,1
1663,1,0.0,0,1.9313099384307861,164,1.0,1
1664,1,0.0,0,1.6173014640808105,165,0.0,1
1665,1,1.0,0,1.2883057594299316,166,1.0,1
1666,1,1.0,0,1.3223052024841309,167,1.0,1
1667,1,1.0,0,2.0483152866363525,168,0.0,1
1668,1,0.0,0,2.109318256378174,169,1.0,1
1669,1,0.0,0,1.3473049402236938,170,0.0,1
1670,1,0.0,0,1.5813019275665283,171,0.0,1
1671,1,1.0,0,1.8593065738677979,172,1.0,1
1672,1,0.0,0,1.174307107925415,173,0.0,1
1673,1,1.0,0,1.2893056869506836,174,0.0,1
1674,1,1.0,0,1.918309211730957,175,1.0,1
1675,1,1.0,0,1.7073003053665161,176,1.0,1
1676,1,1.0,0,1.5073028802871704,177,0.0,1
1677,1,0.0,0,1.3263051509857178,178,0.0,1
1678,1,1.0,0,2.365330219268799,179,1.0,1
1679,1,1.0,0,1.4213039875030518,180,1.0,1
1680,1,1.0,0,1.4283039569854736,181,1.0,1
1681,1,1.0,0,1.502302885055542,182,1.0,1
1682,1,1.0,0,1.4263038635253906,183,1.0,1
1683,1,1.0,0,1.0803083181381226,184,1.0,1
1684,1,0.0,0,1.5883018970489502,185,1.0,1
1685,1,0.0,0,1.7053003311157227,186,0.0,1
1686,1,1.0,0,1.406304121017456,187,1.0,1
1687,1,1.0,0,1.0713084936141968,188,1.0,1
1688,1,1.0,0,1.2023067474365234,189,1.0,1
1689,1,0.0,0,1.883307695388794,190,0.0,1
1690,1,1.0,0,1.504302978515625,191,1.0,1
1691,1,1.0,0,2.0213141441345215,192,1.0,1
1692,1,1.0,0,1.5033029317855835,193,1.0,1
1693,1,1.0,0,1.1843069791793823,194,1.0,1
1694,1,1.0,0,1.7523014545440674,195,0.0,1
1695,1,1.0,0,2.3523294925689697,196,1.0,1
1696,1,1.0,0,1.5703020095825195,197,1.0,1
1697,1,1.0,0,1.3043055534362793,198,0.0,1
1698,1,1.0,0,1.5643022060394287,199,1.0,1
1699,1,1.0,0,1.7643020153045654,200,1.0,1
1700,1,1.0,0,1.151307463645935,201,1.0,1
1701,1,1.0,0,1.5653021335601807,202,1.0,1
1702,1,1.0,0,1.3933043479919434,203,1.0,1
1703,1,1.0,0,1.505302906036377,204,0.0,1
1704,1,1.0,0,2.3463292121887207,205,0.0,1
1705,1,1.0,0,2.0793168544769287,206,1.0,1
1706,1,1.0,0,1.3233052492141724,207,1.0,1
1707,1,1.0,0,1.435303807258606,208,1.0,1
1708,1,1.0,0,1.3843045234680176,209,1.0,1
1709,1,1.0,0,1.274305820465088,210,1.0,1
1710,1,1.0,0,1.7693023681640625,211,1.0,1
1711,1,1.0,0,1.8133044242858887,212,1.0,1
1712,1,1.0,0,1.5673021078109741,213,1.0,1
1713,1,1.0,0,1.549302339553833,214,1.0,1
1714,1,1.0,0,1.689300537109375,215,1.0,1
1715,1,1.0,0,1.2843058109283447,216,1.0,1
1716,1,1.0,0,2.0123136043548584,217,1.0,1
1717,1,0.0,0,1.8413057327270508,218,0.0,1
1718,1,1.0,0,1.228306531906128,219,1.0,1
1719,1,1.0,0,1.4633034467697144,220,1.0,1
1720,1,1.0,0,1.5743019580841064,221,0.0,1
1721,1,1.0,0,2.0853171348571777,222,1.0,1
1722,1,1.0,0,1.3123054504394531,223,0.0,1
1723,1,1.0,0,1.914309024810791,224,1.0,1
1724,1,1.0,0,1.55330228805542,225,1.0,1
1725,1,1.0,0,1.7943034172058105,226,1.0,1
1726,1,1.0,0,1.5373024940490723,227,1.0,1
1727,1,1.0,0,1.4693033695220947,228,1.0,1
1728,1,1.0,0,1.0983080863952637,229,1.0,1
1729,1,1.0,0,1.1983067989349365,230,1.0,1
1730,1,1.0,0,1.225306510925293,231,1.0,1
1731,1,1.0,0,1.689300537109375,232,1.0,1
1732,1,1.0,0,1.268306016921997,233,0.0,1
1733,1,0.0,0,2.2193233966827393,234,0.0,1
1734,1,0.0,0,1.0923081636428833,235,0.0,1
1735,1,1.0,0,2.0263142585754395,236,1.0,1
1736,1,1.0,0,1.8153045177459717,237,1.0,1
1737,1,1.0,0,1.7163002490997314,238,1.0,1
1738,1,1.0,0,1.3063054084777832,239,1.0,1
1739,1,1.0,0,1.9903125762939453,240,1.0,1
1740,1,1.0,0,1.1253077983856201,241,1.0,1
1741,1,1.0,0,1.3293051719665527,242,1.0,1
1742,1,1.0,0,1.4513036012649536,243,1.0,1
1743,1,1.0,0,1.7953035831451416,244,0.0,1
1744,1,0.0,0,1.4493036270141602,245,0.0,1
1745,1,1.0,0,1.8643066883087158,246,1.0,1
1746,1,1.0,0,1.409304141998291,247,1.0,1
1747,1,1.0,0,1.4073041677474976,248,1.0,1
1748,1,1.0,0,1.3963043689727783,249,1.0,1
1749,1,1.0,0,1.5743019580841064,250,1.0,1
1750,1,1.0,0,1.4283039569854736,251,0.0,1
1751,1,0.0,0,1.9913127422332764,252,0.0,1
1752,1,0.0,0,1.6373012065887451,253,0.0,1
1753,1,0.0,0,1.270305871963501,254,0.0,1
1754,1,0.0,0,1.693300485610962,255,0.0,1
1755,1,0.0,0,1.4273039102554321,256,0.0,1
1756,1,0.0,0,1.918309211730957,257,0.0,1
1757,1,0.0,0,2.117318630218506,258,0.0,1
1758,1,0.0,0,2.3163278102874756,259,0.0,1
1759,1,0.0,0,1.7773027420043945,260,1.0,1
1760,1,0.0,0,1.173307180404663,261,0.0,1
1761,1,0.0,0,1.7303004264831543,262,0.0,1
1762,1,0.0,0,2.416332483291626,263,0.0,1
1763,1,0.0,0,1.2123066186904907,264,0.0,1
1764,1,1.0,0,1.7673022747039795,265,1.0,1
1765,1,1.0,0,1.1693072319030762,266,1.0,1
1766,1,1.0,0,1.1463074684143066,267,1.0,1
1767,1,1.0,0,1.2893056869506836,268,1.0,1
1768,1,1.0,0,1.597301721572876,269,1.0,1
1769,1,1.0,0,1.174307107925415,270,0.0,1
1770,1,0.0,0,1.7563016414642334,271,0.0,1
1771,1,0.0,0,1.648301124572754,272,0.0,1
1772,1,0.0,0,1.693300485610962,273,0.0,1
1773,1,0.0,0,1.9823122024536133,274,0.0,1
1774,1,1.0,0,1.2053067684173584,275,0.0,1
1775,1,1.0,0,1.8503060340881348,276,0.0,1
1776,1,1.0,0,1.552302360534668,277,1.0,1
1777,1,1.0,0,1.5813019275665283,278,1.0,1
1778,1,1.0,0,2.0773167610168457,279,1.0,1
1779,1,1.0,0,1.3803045749664307,280,0.0,1
1780,1,1.0,0,2.2783260345458984,281,1.0,1
1781,1,1.0,0,1.6033016443252563,282,1.0,1
1782,1,1.0,0,1.317305326461792,283,1.0,1
1783,1,1.0,0,1.0733084678649902,284,0.0,1
1784,1,1.0,0,2.2663254737854004,285,1.0,1
1785,1,1.0,0,1.6763007640838623,286,0.0,1
1786,1,1.0,0,2.216323137283325,287,1.0,1
1787,1,1.0,0,1.2393063306808472,288,1.0,1
1788,1,1.0,0,1.6293013095855713,289,1.0,1
1789,1,1.0,0,1.416304111480713,290,1.0,1
1790,1,1.0,0,1.2143065929412842,291,1.0,1
1791,1,1.0,0,1.412304162979126,292,1.0,1
1792,1,1.0,0,2.177321434020996,293,0.0,1
1793,1,1.0,0,1.4953030347824097,294,1.0,1
1794,1,1.0,0,1.1853070259094238,295,1.0,1
1795,1,1.0,0,1.9653115272521973,296,0.0,1
1796,1,1.0,0,1.924309492111206,297,1.0,1
1797,1,1.0,0,2.123318910598755,298,1.0,1
1798,1,1.0,0,1.31630539894104,299,1.0,1
1799,1,1.0,0,1.7163002490997314,300,1.0,1
1800,1,1.0,0,1.2423062324523926,301,1.0,1
1801,1,1.0,0,1.4863030910491943,302,0.0,1
1802,1,0.0,0,2.111318349838257,303,1.0,1
1803,1,0.0,0,1.7933034896850586,304,0.0,1
1804,1,0.0,0,1.7183001041412354,305,0.0,1
1805,1,1.0,0,2.0863170623779297,306,1.0,1
1806,1,1.0,0,1.6263012886047363,307,1.0,1
1807,1,1.0,0,1.5353025197982788,308,1.0,1
1808,1,1.0,0,1.6063015460968018,309,1.0,1
1809,1,1.0,0,2.0153138637542725,310,1.0,1
1810,1,1.0,0,1.6493010520935059,311,1.0,1
1811,1,1.0,0,1.320305347442627,312,1.0,1
1812,1,1.0,0,2.152320146560669,313,1.0,1
1813,1,1.0,0,2.0103135108947754,314,1.0,1
1814,1,1.0,0,1.3523049354553223,315,1.0,1
1815,1,1.0,0,1.2873057126998901,316,0.0,1
1816,1,1.0,0,1.6543009281158447,317,1.0,1
1817,1,1.0,0,1.5433024168014526,318,1.0,1
1818,1,1.0,0,1.9503107070922852,319,1.0,1
1819,1,0.0,0,1.6143014430999756,320,1.0,1
1820,1,0.0,0,1.3593047857284546,321,0.0,1
1821,1,1.0,0,1.8253049850463867,322,1.0,1
1822,1,1.0,0,1.0793083906173706,323,1.0,1
1823,1,0.0,0,1.4283039569854736,324,0.0,1
1824,1,1.0,0,1.8153045177459717,325,1.0,1
1825,1,1.0,0,1.2073067426681519,326,1.0,1
1826,1,1.0,0,1.7343006134033203,327,1.0,1
1827,1,1.0,0,1.2943055629730225,328,1.0,1
1828,1,1.0,0,1.7383008003234863,329,1.0,1
1829,1,1.0,0,1.4673033952713013,330,1.0,1
1830,1,1.0,0,1.9693117141723633,331,1.0,1
1831,1,1.0,0,1.8393056392669678,332,1.0,1
1832,1,1.0,0,1.889307975769043,333,1.0,1
1833,1,1.0,0,1.4373037815093994,334,1.0,1
1834,1,1.0,0,1.3383049964904785,335,1.0,1
1835,1,1.0,0,1.5213027000427246,336,1.0,1
1836,1,1.0,0,1.9893126487731934,337,1.0,1
1837,1,1.0,0,1.527302622795105,338,1.0,1
1838,1,1.0,0,1.917309284210205,339,1.0,1
1839,1,1.0,0,1.3293051719665527,340,1.0,1
1840,1,1.0,0,1.2203065156936646,341,1.0,1
1841,1,1.0,0,1.4143040180206299,342,1.0,1
1842,1,1.0,0,1.6023015975952148,343,1.0,1
1843,1,1.0,0,1.4413037300109863,344,1.0,1
1844,1,1.0,0,1.597301721572876,345,0.0,1
1845,1,0.0,0,1.7213001251220703,346,0.0,1
1846,1,0.0,0,1.9813122749328613,347,0.0,1
1847,1,1.0,0,2.2493247985839844,348,1.0,1
1848,1,1.0,0,1.3993042707443237,349,0.0,1
1849,1,0.0,0,1.6533010005950928,350,0.0,1
1850,1,0.0,0,1.3323051929473877,351,0.0,1
1851,1,1.0,0,2.2363240718841553,352,1.0,1
1852,1,1.0,0,1.8123042583465576,353,1.0,1
1853,1,1.0,0,1.4383037090301514,354,1.0,1
1854,1,1.0,0,1.938310146331787,355,1.0,1
1855,1,1.0,0,1.5153027772903442,356,0.0,1
1856,1,0.0,0,1.2353063821792603,357,0.0,1
1857,1,0.0,0,1.7083003520965576,358,0.0,1
1858,1,0.0,0,1.8463058471679688,359,0.0,1
1859,1,1.0,0,2.2713258266448975,360,1.0,1
1860,1,1.0,0,1.2063066959381104,361,1.0,1
1861,1,1.0,0,1.0743083953857422,362,1.0,1
1862,1,1.0,0,2.0703163146972656,363,1.0,1
1863,1,1.0,0,1.7053003311157227,364,1.0,1
1864,1,1.0,0,1.6203014850616455,365,1.0,1
1865,1,1.0,0,1.3783044815063477,366,1.0,1
1866,1,1.0,0,1.2633060216903687,367,1.0,1
1867,1,1.0,0,1.3283052444458008,368,1.0,1
1868,1,1.0,0,1.550302267074585,369,1.0,1
1869,1,1.0,0,1.2773058414459229,370,1.0,1
1870,1,1.0,0,2.0153138637542725,371,1.0,1
1871,1,1.0,0,1.2823057174682617,372,1.0,1
1872,1,1.0,0,1.458303451538086,373,1.0,1
1873,1,1.0,0,1.934309959411621,374,1.0,1
1874,1,1.0,0,2.0803167819976807,375,1.0,1
1875,1,1.0,0,1.3983042240142822,376,1.0,1
1876,1,1.0,0,1.1623072624206543,377,1.0,1
1877,1,1.0,0,1.7293004989624023,378,1.0,1
1878,1,1.0,0,1.5253026485443115,379,1.0,1
1879,1,1.0,0,1.3943042755126953,380,1.0,1
1880,1,1.0,0,1.5823018550872803,381,0.0,1
1881,1,1.0,0,1.6173014640808105,382,1.0,1
1882,1,1.0,0,1.3153053522109985,383,1.0,1
1883,1,1.0,0,1.7603018283843994,384,1.0,1
1884,1,1.0,0,2.0003130435943604,385,1.0,1
1885,1,1.0,0,1.0983080863952637,386,1.0,1
1886,1,1.0,0,1.6833006143569946,387,1.0,1
1887,1,1.0,0,1.5033029317855835,388,1.0,1
1888,1,1.0,0,1.4003043174743652,389,1.0,1
1889,1,1.0,0,1.6833006143569946,390,1.0,1
1890,1,1.0,0,1.5633021593093872,391,1.0,1
1891,1,1.0,0,1.2963056564331055,392,1.0,1
1892,1,1.0,0,1.6033016443252563,393,1.0,1
1893,1,1.0,0,1.7453012466430664,394,1.0,1
1894,1,1.0,0,1.5783019065856934,395,0.0,1
1895,1,0.0,0,1.266305923461914,396,0.0,1
1896,1,0.0,0,1.5653021335601807,397,1.0,1
1897,1,0.0,0,1.358304738998413,398,0.0,1
1898,1,0.0,0,1.9983129501342773,399,0.0,1
1899,1,0.0,0,1.3033055067062378,400,0.0,1
1900,1,0.0,0,1.3333051204681396,401,0.0,1
1901,1,0.0,0,2.135319471359253,402,0.0,1
1902,1,1.0,0,1.1763070821762085,403,1.0,1
1903,1,1.0,0,2.450334072113037,404,1.0,1
1904,1,1.0,0,1.886307716369629,405,1.0,1
1905,1,1.0,0,1.4113041162490845,406,1.0,1
1906,1,1.0,0,1.7683022022247314,407,1.0,1
1907,1,1.0,0,1.8653068542480469,408,1.0,1
1908,1,1.0,0,1.5393024682998657,409,1.0,1
1909,1,1.0,0,1.0743083953857422,410,0.0,1
1910,1,1.0,0,2.3183279037475586,411,1.0,1
1911,1,1.0,0,1.4813032150268555,412,1.0,1
1912,1,1.0,0,1.0923081636428833,413,1.0,1
1913,1,1.0,0,1.3943042755126953,414,1.0,1
1914,1,1.0,0,1.366304636001587,415,1.0,1
1915,1,1.0,0,1.3013055324554443,416,1.0,1
1916,1,1.0,0,1.7993037700653076,417,1.0,1
1917,1,1.0,0,1.2533061504364014,418,0.0,1
1918,1,1.0,0,1.575302004814148,419,1.0,1
1919,1,1.0,0,1.458303451538086,420,1.0,1
1920,1,0.0,0,1.8083040714263916,421,0.0,1
1921,1,1.0,0,1.3083055019378662,422,1.0,1
1922,1,1.0,0,1.5103027820587158,423,1.0,1
1923,1,1.0,0,2.124318838119507,424,1.0,1
1924,1,1.0,0,2.182321548461914,425,1.0,1
1925,1,1.0,0,1.6343011856079102,426,1.0,1
1926,1,1.0,0,1.890307903289795,427,1.0,1
1927,1,1.0,0,1.2323064804077148,428,1.0,1
1928,1,1.0,0,1.5283026695251465,429,1.0,1
1929,1,1.0,0,1.3743045330047607,430,1.0,1
1930,1,1.0,0,1.317305326461792,431,1.0,1
1931,1,1.0,0,1.2403063774108887,432,1.0,1
1932,1,1.0,0,1.2193065881729126,433,1.0,1
1933,1,1.0,0,1.4463036060333252,434,1.0,1
1934,1,1.0,0,1.5563023090362549,435,1.0,1
1935,1,1.0,0,1.646301031112671,436,1.0,1
1936,1,1.0,0,1.498302936553955,437,1.0,1
1937,1,1.0,0,1.7293004989624023,438,1.0,1
1938,1,1.0,0,1.596301794052124,439,1.0,1
1939,1,1.0,0,1.7783026695251465,440,1.0,1
1940,1,1.0,0,1.9853124618530273,441,1.0,1
1941,1,1.0,0,1.5553022623062134,442,1.0,1
1942,1,1.0,0,1.3503048419952393,443,1.0,1
1943,1,1.0,0,1.247306227684021,444,1.0,1
1944,1,1.0,0,1.8583064079284668,445,1.0,1
1945,1,1.0,0,1.7563016414642334,446,1.0,1
1946,1,1.0,0,1.2943055629730225,447,1.0,1
1947,1,1.0,0,1.078308343887329,448,1.0,1
1948,1,1.0,0,1.5323026180267334,449,1.0,1
1949,1,1.0,0,1.4813032150268555,450,1.0,1
1950,1,1.0,0,1.596301794052124,451,1.0,1
1951,1,1.0,0,1.6063015460968018,452,1.0,1
1952,1,1.0,0,1.4553035497665405,453,1.0,1
1953,1,1.0,0,1.600301742553711,454,1.0,1
1954,1,0.0,0,1.619301438331604,455,0.0,1
1955,1,1.0,0,1.130307674407959,456,1.0,1
1956,1,1.0,0,1.2333064079284668,457,1.0,1
1957,1,1.0,0,1.269305944442749,458,0.0,1
1958,1,1.0,0,1.886307716369629,459,1.0,1
1959,1,1.0,0,1.3423049449920654,460,1.0,1
1960,1,1.0,0,1.7003004550933838,461,1.0,1
1961,1,1.0,0,1.688300609588623,462,1.0,1
1962,1,1.0,0,1.527302622795105,463,1.0,1
1963,1,1.0,0,1.4953030347824097,464,1.0,1
1964,1,1.0,0,1.2123066186904907,465,1.0,1
1965,1,1.0,0,1.1583073139190674,466,1.0,1
1966,1,1.0,0,1.314305305480957,467,0.0,1
1967,1,1.0,0,2.0713164806365967,468,1.0,1
1968,1,1.0,0,1.1423075199127197,469,1.0,1
1969,1,1.0,0,1.3463048934936523,470,0.0,1
1970,1,0.0,0,2.3343286514282227,471,0.0,1
1971,1,0.0,0,1.590301752090454,472,0.0,1
1972,1,0.0,0,2.0803167819976807,473,1.0,1
1973,1,0.0,0,1.5323026180267334,474,0.0,1
1974,1,0.0,0,1.7373008728027344,475,0.0,1
1975,1,1.0,0,1.6843006610870361,476,1.0,1
1976,1,1.0,0,1.2333064079284668,477,1.0,1
1977,1,1.0,0,1.5343024730682373,478,1.0,1
1978,1,1.0,0,1.6953004598617554,479,1.0,1
1979,1,1.0,0,1.31630539894104,480,1.0,1
1980,1,1.0,0,1.7193001508712769,481,1.0,1
1981,1,1.0,0,1.7223000526428223,482,1.0,1
1982,1,1.0,0,2.150320053100586,483,1.0,1
1983,1,1.0,0,1.7003004550933838,484,1.0,1
1984,1,1.0,0,1.6973004341125488,485,1.0,1
1985,1,1.0,0,1.155307412147522,486,1.0,1
1986,1,1.0,0,1.5473023653030396,487,0.0,1
1987,1,0.0,0,1.5403025150299072,488,0.0,1
1988,1,1.0,0,1.648301124572754,489,0.0,1
1989,1,1.0,0,2.2503247261047363,490,1.0,1
1990,1,1.0,0,1.6613008975982666,491,0.0,1
1991,1,0.0,0,1.3573048114776611,492,1.0,1
1992,1,0.0,0,0.9673097133636475,493,0.0,1
1993,1,1.0,0,2.167320966720581,494,1.0,1
1994,1,1.0,0,1.8303050994873047,495,1.0,1
1995,1,1.0,0,1.8583064079284668,496,1.0,1
1996,1,1.0,0,1.7603018283843994,497,1.0,1
1997,1,0.0,0,2.0653162002563477,498,0.0,1
1998,1,1.0,0,1.1463074684143066,499,1.0,1
1999,1,1.0,0,1.6603009700775146,500,1.0,1
2000,1,1.0,1,1.2273064851760864,1,1.0,1
2001,1,1.0,1,2.0193140506744385,2,1.0,1
2002,1,1.0,1,1.7663021087646484,3,1.0,1
2003,1,1.0,1,1.5783019065856934,4,1.0,1
2004,1,1.0,1,1.8583064079284668,5,1.0,1
2005,1,1.0,1,2.0133137702941895,6,1.0,1
2006,1,1.0,1,1.8743071556091309,7,1.0,1
2007,1,1.0,1,1.320305347442627,8,1.0,1
2008,1,0.0,1,1.2843058109283447,9,0.0,1
2009,1,1.0,1,1.6303012371063232,10,1.0,1
2010,1,1.0,1,1.6513010263442993,11,0.0,1
2011,1,0.0,1,2.114318370819092,12,1.0,1
2012,1,0.0,1,1.4223039150238037,13,0.0,1
2013,1,1.0,1,2.3513295650482178,14,1.0,1
2014,1,1.0,1,1.3823044300079346,15,1.0,1
2015,1,0.0,1,1.133307695388794,16,0.0,1
2016,1,1.0,1,1.3103053569793701,17,1.0,1
2017,1,1.0,1,1.7293004989624023,18,1.0,1
2018,1,1.0,1,1.7323005199432373,19,1.0,1
2019,1,1.0,1,1.6563010215759277,20,0.0,1
2020,1,0.0,1,2.387331247329712,21,1.0,1
2021,1,0.0,1,1.5263025760650635,22,1.0,1
2022,1,0.0,1,1.3113054037094116,23,0.0,1
2023,1,0.0,1,1.2563061714172363,24,0.0,1
2024,1,1.0,1,1.5073028802871704,25,1.0,1
2025,1,1.0,1,1.1833070516586304,26,1.0,1
2026,1,1.0,1,1.3883044719696045,27,1.0,1
2027,1,1.0,1,1.9463105201721191,28,0.0,1
2028,1,1.0,1,1.6763007640838623,29,0.0,1
2029,1,1.0,1,2.3013272285461426,30,1.0,1
2030,1,1.0,1,1.909308910369873,31,0.0,1
2031,1,1.0,1,1.9903125762939453,32,1.0,1
2032,1,1.0,1,1.8283050060272217,33,1.0,1
2033,1,1.0,1,1.3763046264648438,34,0.0,1
2034,1,1.0,1,1.1273077726364136,35,1.0,1
2035,1,1.0,1,2.0463151931762695,36,1.0,1
2036,1,1.0,1,1.173307180404663,37,1.0,1
2037,1,0.0,1,1.4253039360046387,38,0.0,1
2038,1,1.0,1,1.2563061714172363,39,1.0,1
2039,1,1.0,1,1.3853044509887695,40,1.0,1
2040,1,1.0,1,1.1623072624206543,41,1.0,1
2041,1,1.0,1,1.6723008155822754,42,1.0,1
2042,1,1.0,1,1.4663033485412598,43,1.0,1
2043,1,1.0,1,1.2983055114746094,44,1.0,1
2044,1,1.0,1,1.4143040180206299,45,0.0,1
2045,1,0.0,1,1.645301103591919,46,1.0,1
2046,1,0.0,1,1.1873070001602173,47,0.0,1
2047,1,1.0,1,2.423332929611206,48,1.0,1
2048,1,1.0,1,1.4703032970428467,49,1.0,1
2049,1,1.0,1,1.453303575515747,50,1.0,1
2050,1,1.0,1,1.8373055458068848,51,1.0,1
2051,1,1.0,1,2.0623159408569336,52,1.0,1
2052,1,1.0,1,1.5113028287887573,53,0.0,1
2053,1,1.0,1,2.144319772720337,54,1.0,1
2054,1,1.0,1,1.64030122756958,55,1.0,1
2055,1,1.0,1,1.5573022365570068,56,0.0,1
2056,1,0.0,1,1.5353025197982788,57,0.0,1
2057,1,1.0,1,1.9453105926513672,58,1.0,1
2058,1,1.0,1,1.5813019275665283,59,0.0,1
2059,1,1.0,1,1.5163028240203857,60,1.0,1
2060,1,1.0,1,1.5623021125793457,61,1.0,1
2061,1,1.0,1,1.1883069276809692,62,1.0,1
2062,1,1.0,1,1.7473013401031494,63,0.0,1
2063,1,1.0,1,1.7883031368255615,64,1.0,1
2064,1,1.0,1,1.4973030090332031,65,1.0,1
2065,1,1.0,1,1.506302833557129,66,1.0,1
2066,1,1.0,1,1.318305253982544,67,0.0,1
2067,1,1.0,1,1.7173001766204834,68,1.0,1
2068,1,1.0,1,2.2753260135650635,69,1.0,1
2069,1,1.0,1,1.1643072366714478,70,0.0,1
2070,1,1.0,1,1.7463011741638184,71,1.0,1
2071,1,1.0,1,1.8063039779663086,72,0.0,1
2072,1,0.0,1,1.2153066396713257,73,0.0,1
2073,1,1.0,1,2.2903265953063965,74,0.0,1
2074,1,1.0,1,1.7393009662628174,75,1.0,1
2075,1,1.0,1,1.6433011293411255,76,0.0,1
2076,1,1.0,1,1.416304111480713,77,1.0,1
2077,1,1.0,1,1.2363064289093018,78,1.0,1
2078,1,1.0,1,1.8173046112060547,79,1.0,1
2079,1,1.0,1,1.7623019218444824,80,1.0,1
2080,1,1.0,1,1.2363064289093018,81,1.0,1
2081,1,1.0,1,1.4173040390014648,82,1.0,1
2082,1,1.0,1,1.130307674407959,83,1.0,1
2083,1,1.0,1,1.276305913925171,84,0.0,1
2084,1,1.0,1,2.204322576522827,85,1.0,1
2085,1,1.0,1,1.7043004035949707,86,1.0,1
2086,1,1.0,1,1.3863043785095215,87,1.0,1
2087,1,1.0,1,1.667300820350647,88,0.0,1
2088,1,0.0,1,1.4493036270141602,89,0.0,1
2089,1,0.0,1,2.0203139781951904,90,1.0,1
2090,1,0.0,1,1.5353025197982788,91,0.0,1
2091,1,1.0,1,1.7953035831451416,92,0.0,1
2092,1,0.0,1,1.7913033962249756,93,1.0,1
2093,1,0.0,1,1.0023093223571777,94,0.0,1
2094,1,1.0,1,1.5823018550872803,95,1.0,1
2095,1,1.0,1,1.2353063821792603,96,0.0,1
2096,1,0.0,1,2.212322950363159,97,0.0,1
2097,1,0.0,1,1.358304738998413,98,0.0,1
2098,1,0.0,1,2.2653255462646484,99,0.0,1
2099,1,0.0,1,1.1883069276809692,100,1.0,1
2100,1,0.0,1,1.108307957649231,101,0.0,1
2101,1,0.0,1,1.7123003005981445,102,0.0,1
2102,1,0.0,1,1.2593060731887817,103,0.0,1
2103,1,0.0,1,1.8173046112060547,104,0.0,1
2104,1,0.0,1,1.3983042240142822,105,0.0,1
2105,1,0.0,1,1.9973130226135254,106,0.0,1
2106,1,1.0,1,2.476335287094116,107,1.0,1
2107,1,1.0,1,1.3483049869537354,108,1.0,1
2108,1,1.0,1,2.0193140506744385,109,1.0,1
2109,1,1.0,1,1.4913030862808228,110,1.0,1
2110,1,1.0,1,1.5373024940490723,111,1.0,1
2111,1,1.0,1,1.4743032455444336,112,1.0,1
2112,1,1.0,1,1.1223077774047852,113,1.0,1
2113,1,1.0,1,1.6833006143569946,114,0.0,1
2114,1,0.0,1,1.8673069477081299,115,0.0,1
2115,1,0.0,1,1.360304832458496,116,0.0,1
2116,1,0.0,1,1.7163002490997314,117,1.0,1
2117,1,0.0,1,1.4633034467697144,118,0.0,1
2118,1,0.0,1,1.089308261871338,119,0.0,1
2119,1,1.0,1,2.208322763442993,120,1.0,1
2120,1,0.0,1,1.3773045539855957,121,0.0,1
2121,1,1.0,1,1.8313052654266357,122,1.0,1
2122,1,1.0,1,0.9613097310066223,123,1.0,1
2123,1,1.0,1,1.4933030605316162,124,0.0,1
2124,1,0.0,1,1.7273004055023193,125,0.0,1
2125,1,0.0,1,1.39130437374115,126,0.0,1
2126,1,0.0,1,1.7913033962249756,127,0.0,1
2127,1,1.0,1,1.7423009872436523,128,0.0,1
2128,1,1.0,1,2.0783166885375977,129,0.0,1
2129,1,0.0,1,1.873307228088379,130,1.0,1
2130,1,0.0,1,1.6073015928268433,131,1.0,1
2131,1,0.0,1,1.527302622795105,132,0.0,1
2132,1,1.0,1,1.4953030347824097,133,0.0,1
2133,1,0.0,1,2.12631893157959,134,0.0,1
2134,1,0.0,1,2.12631893157959,135,0.0,1
2135,1,0.0,1,1.2803058624267578,136,0.0,1
2136,1,1.0,1,2.136319398880005,137,1.0,1
2137,1,1.0,1,1.4073041677474976,138,0.0,1
2138,1,0.0,1,1.6103014945983887,139,0.0,1
2139,1,1.0,1,2.3363287448883057,140,1.0,1
2140,1,1.0,1,1.2963056564331055,141,1.0,1
2141,1,1.0,1,1.2793058156967163,142,1.0,1
2142,1,1.0,1,1.225306510925293,143,1.0,1
2143,1,1.0,1,1.2483062744140625,144,0.0,1
2144,1,0.0,1,1.8613066673278809,145,0.0,1
2145,1,0.0,1,2.3623299598693848,146,0.0,1
2146,1,0.0,1,1.8743071556091309,147,0.0,1
2147,1,1.0,1,2.147320032119751,148,0.0,1
2148,1,0.0,1,1.7183001041412354,149,0.0,1
2149,1,1.0,1,1.9553110599517822,150,1.0,1
2150,1,1.0,1,1.4473036527633667,151,1.0,1
2151,1,1.0,1,1.0913082361221313,152,1.0,1
2152,1,1.0,1,1.5783019065856934,153,0.0,1
2153,1,1.0,1,2.109318256378174,154,1.0,1
2154,1,1.0,1,1.1603072881698608,155,1.0,1
2155,1,1.0,1,1.2173066139221191,156,1.0,1
2156,1,1.0,1,1.2873057126998901,157,1.0,1
2157,1,1.0,1,1.3453049659729004,158,1.0,1
2158,1,1.0,1,1.5353025197982788,159,1.0,1
2159,1,1.0,1,1.4183039665222168,160,0.0,1
2160,1,0.0,1,2.0423150062561035,161,1.0,1
2161,1,0.0,1,1.3693046569824219,162,0.0,1
2162,1,0.0,1,2.0193140506744385,163,0.0,1
2163,1,0.0,1,2.0043132305145264,164,0.0,1
2164,1,0.0,1,1.7533016204833984,165,0.0,1
2165,1,1.0,1,1.8503060340881348,166,1.0,1
2166,1,1.0,1,1.5773019790649414,167,1.0,1
2167,1,1.0,1,1.2993055582046509,168,1.0,1
2168,1,1.0,1,1.0673085451126099,169,0.0,1
2169,1,1.0,1,1.4853031635284424,170,1.0,1
2170,1,1.0,1,1.7533016204833984,171,1.0,1
2171,1,1.0,1,1.5133028030395508,172,1.0,1
2172,1,1.0,1,1.4303038120269775,173,0.0,1
2173,1,0.0,1,2.2683255672454834,174,0.0,1
2174,1,0.0,1,1.8603065013885498,175,0.0,1
2175,1,1.0,1,1.3023054599761963,176,1.0,1
2176,1,1.0,1,1.5593022108078003,177,1.0,1
2177,1,1.0,1,1.2843058109283447,178,1.0,1
2178,1,0.0,1,1.7523014545440674,179,0.0,1
2179,1,1.0,1,1.3983042240142822,180,1.0,1
2180,1,1.0,1,0.962309718132019,181,1.0,1
2181,1,1.0,1,1.5763020515441895,182,1.0,1
2182,1,1.0,1,1.8283050060272217,183,0.0,1
2183,1,0.0,1,2.0623159408569336,184,0.0,1
2184,1,1.0,1,2.0323145389556885,185,1.0,1
2185,1,1.0,1,1.4263038635253906,186,0.0,1
2186,1,0.0,1,1.875307321548462,187,0.0,1
2187,1,1.0,1,1.6043016910552979,188,0.0,1
2188,1,1.0,1,2.368330240249634,189,1.0,1
2189,1,1.0,1,1.3243052959442139,190,0.0,1
2190,1,0.0,1,1.458303451538086,191,0.0,1
2191,1,0.0,1,1.9753119945526123,192,1.0,1
2192,1,0.0,1,1.483303189277649,193,1.0,1
2193,1,0.0,1,1.3013055324554443,194,0.0,1
2194,1,0.0,1,0.9103096127510071,195,0.0,1
2195,1,0.0,1,1.9463105201721191,196,0.0,1
2196,1,0.0,1,1.335305094718933,197,0.0,1
2197,1,0.0,1,1.8543062210083008,198,0.0,1
2198,1,0.0,1,1.9653115272521973,199,0.0,1
2199,1,1.0,1,2.3623299598693848,200,1.0,1
2200,1,1.0,1,1.3743045330047607,201,1.0,1
2201,1,1.0,1,1.251306176185608,202,0.0,1
2202,1,1.0,1,2.0503153800964355,203,1.0,1
2203,1,1.0,1,1.6223013401031494,204,0.0,1
2204,1,1.0,1,1.644301176071167,205,0.0,1
2205,1,1.0,1,2.0273144245147705,206,1.0,1
2206,1,1.0,1,1.2233065366744995,207,1.0,1
2207,1,1.0,1,1.3043055534362793,208,1.0,1
2208,1,1.0,1,1.4453036785125732,209,1.0,1
2209,1,1.0,1,1.3553048372268677,210,0.0,1
2210,1,0.0,1,2.2263236045837402,211,0.0,1
2211,1,1.0,1,1.251306176185608,212,1.0,1
2212,1,1.0,1,1.1833070516586304,213,1.0,1
2213,1,1.0,1,1.5563023090362549,214,0.0,1
2214,1,0.0,1,1.3453049659729004,215,1.0,1
2215,1,0.0,1,1.6133015155792236,216,1.0,1
2216,1,0.0,1,1.6753007173538208,217,1.0,1
2217,1,0.0,1,1.0733084678649902,218,0.0,1
2218,1,0.0,1,1.4813032150268555,219,0.0,1
2219,1,1.0,1,2.374330520629883,220,1.0,1
2220,1,1.0,1,1.8603065013885498,221,1.0,1
2221,1,1.0,1,1.2333064079284668,222,0.0,1
2222,1,1.0,1,1.7103002071380615,223,1.0,1
2223,1,1.0,1,1.7303004264831543,224,1.0,1
2224,1,1.0,1,1.365304708480835,225,1.0,1
2225,1,1.0,1,1.5123028755187988,226,1.0,1
2226,1,1.0,1,1.36830472946167,227,1.0,1
2227,1,1.0,1,1.2203065156936646,228,1.0,1
2228,1,1.0,1,1.3803045749664307,229,0.0,1
2229,1,0.0,1,2.185321807861328,230,0.0,1
2230,1,0.0,1,2.2493247985839844,231,1.0,1
2231,1,0.0,1,1.4553035497665405,232,0.0,1
2232,1,1.0,1,2.378330707550049,233,0.0,1
2233,1,0.0,1,1.904308557510376,234,0.0,1
2234,1,1.0,1,2.3463292121887207,235,1.0,1
2235,1,1.0,1,1.3193053007125854,236,1.0,1
2236,1,1.0,1,1.2073067426681519,237,1.0,1
2237,1,1.0,1,1.295305609703064,238,1.0,1
2238,1,1.0,1,1.5213027000427246,239,1.0,1
2239,1,1.0,1,1.365304708480835,240,0.0,1
2240,1,1.0,1,2.188321828842163,241,1.0,1
2241,1,1.0,1,1.7453012466430664,242,1.0,1
2242,1,1.0,1,1.2133066654205322,243,0.0,1
2243,1,0.0,1,1.6723008155822754,244,0.0,1
2244,1,0.0,1,2.0573158264160156,245,0.0,1
2245,1,1.0,1,1.938310146331787,246,1.0,1
2246,1,1.0,1,1.6873005628585815,247,1.0,1
2247,1,1.0,1,1.2423062324523926,248,1.0,1
2248,1,1.0,1,1.505302906036377,249,1.0,1
2249,1,1.0,1,1.5103027820587158,250,1.0,1
2250,1,1.0,1,1.3363051414489746,251,1.0,1
2251,1,1.0,1,2.099317789077759,252,1.0,1
2252,1,1.0,1,1.221306562423706,253,1.0,1
2253,1,1.0,1,1.1623072624206543,254,1.0,1
2254,1,1.0,1,1.548302412033081,255,1.0,1
2255,1,1.0,1,1.8543062210083008,256,0.0,1
2256,1,0.0,1,1.3803045749664307,257,1.0,1
2257,1,0.0,1,1.1163078546524048,258,0.0,1
2258,1,0.0,1,1.9313099384307861,259,0.0,1
2259,1,0.0,1,1.909308910369873,260,0.0,1
2260,1,0.0,1,1.318305253982544,261,0.0,1
2261,1,1.0,1,1.896308183670044,262,0.0,1
2262,1,0.0,1,1.7493014335632324,263,0.0,1
2263,1,0.0,1,2.0743165016174316,264,0.0,1
2264,1,0.0,1,2.0633161067962646,265,0.0,1
2265,1,0.0,1,2.127319097518921,266,1.0,1
2266,1,0.0,1,1.5783019065856934,267,0.0,1
2267,1,0.0,1,1.7523014545440674,268,0.0,1
2268,1,1.0,1,2.0483152866363525,269,1.0,1
2269,1,1.0,1,1.0463087558746338,270,1.0,1
2270,1,1.0,1,1.1983067989349365,271,1.0,1
2271,1,1.0,1,1.3823044300079346,272,1.0,1
2272,1,1.0,1,1.3313051462173462,273,1.0,1
2273,1,1.0,1,1.3073054552078247,274,1.0,1
2274,1,1.0,1,1.3813045024871826,275,0.0,1
2275,1,1.0,1,2.127319097518921,276,1.0,1
2276,1,1.0,1,1.7293004989624023,277,1.0,1
2277,1,1.0,1,1.1383075714111328,278,1.0,1
2278,1,1.0,1,1.5863018035888672,279,1.0,1
2279,1,1.0,1,1.1463074684143066,280,0.0,1
2280,1,0.0,1,1.3193053007125854,281,1.0,1
2281,1,0.0,1,1.9583110809326172,282,0.0,1
2282,1,0.0,1,1.919309377670288,283,0.0,1
2283,1,1.0,1,2.2873265743255615,284,1.0,1
2284,1,1.0,1,1.2773058414459229,285,0.0,1
2285,1,1.0,1,1.8623065948486328,286,1.0,1
2286,1,1.0,1,1.2193065881729126,287,0.0,1
2287,1,0.0,1,2.16632080078125,288,0.0,1
2288,1,0.0,1,1.5623021125793457,289,0.0,1
2289,1,1.0,1,1.3043055534362793,290,1.0,1
2290,1,1.0,1,1.3253052234649658,291,1.0,1
2291,1,1.0,1,1.4213039875030518,292,1.0,1
2292,1,1.0,1,1.3863043785095215,293,1.0,1
2293,1,1.0,1,1.4783031940460205,294,1.0,1
2294,1,1.0,1,1.3713046312332153,295,0.0,1
2295,1,0.0,1,1.5553022623062134,296,0.0,1
2296,1,1.0,1,1.598301649093628,297,1.0,1
2297,1,1.0,1,1.2863056659698486,298,1.0,1
2298,1,1.0,1,1.6813006401062012,299,1.0,1
2299,1,1.0,1,1.4153040647506714,300,1.0,1
2300,1,1.0,1,1.3293051719665527,301,0.0,1
2301,1,0.0,1,1.7643020153045654,302,0.0,1
2302,1,1.0,1,2.366330146789551,303,1.0,1
2303,1,1.0,1,1.2453062534332275,304,0.0,1
2304,1,1.0,1,1.8423056602478027,305,0.0,1
2305,1,1.0,1,1.218306541442871,306,1.0,1
2306,1,1.0,1,1.8543062210083008,307,0.0,1
2307,1,1.0,1,1.6573009490966797,308,1.0,1
2308,1,1.0,1,1.276305913925171,309,0.0,1
2309,1,1.0,1,1.4673033952713013,310,0.0,1
2310,1,1.0,1,1.881307601928711,311,1.0,1
2311,1,1.0,1,1.7823028564453125,312,0.0,1
2312,1,0.0,1,2.135319471359253,313,1.0,1
2313,1,0.0,1,1.5133028030395508,314,0.0,1
2314,1,1.0,1,1.7543015480041504,315,1.0,1
2315,1,1.0,1,1.364304780960083,316,1.0,1
2316,1,1.0,1,1.4193040132522583,317,1.0,1
2317,1,1.0,1,1.6663007736206055,318,1.0,1
2318,1,1.0,1,1.596301794052124,319,0.0,1
2319,1,0.0,1,2.0163137912750244,320,0.0,1
2320,1,1.0,1,2.184321641921997,321,1.0,1
2321,1,0.0,1,2.5153372287750244,322,0.0,1
2322,1,1.0,1,2.0163137912750244,323,1.0,1
2323,1,1.0,1,1.1673072576522827,324,0.0,1
2324,1,1.0,1,2.2633254528045654,325,1.0,1
2325,1,1.0,1,1.7523014545440674,326,1.0,1
2326,1,1.0,1,1.4393037557601929,327,1.0,1
2327,1,1.0,1,1.0323089361190796,328,1.0,1
2328,1,1.0,1,1.505302906036377,329,0.0,1
2329,1,1.0,1,1.4273039102554321,330,1.0,1
2330,1,1.0,1,1.6393011808395386,331,1.0,1
2331,1,1.0,1,1.5893018245697021,332,0.0,1
2332,1,1.0,1,1.6723008155822754,333,1.0,1
2333,1,1.0,1,1.5693020820617676,334,1.0,1
2334,1,1.0,1,1.5763020515441895,335,0.0,1
2335,1,1.0,1,1.7543015480041504,336,0.0,1
2336,1,0.0,1,1.600301742553711,337,0.0,1
2337,1,0.0,1,1.5733020305633545,338,0.0,1
2338,1,1.0,1,1.9473106861114502,339,0.0,1
2339,1,0.0,1,1.9563109874725342,340,0.0,1
2340,1,1.0,1,1.4463036060333252,341,1.0,1
2341,1,1.0,1,1.2773058414459229,342,1.0,1
2342,1,1.0,1,1.9593112468719482,343,1.0,1
2343,1,1.0,1,1.2803058624267578,344,1.0,1
2344,1,1.0,1,1.7293004989624023,345,0.0,1
2345,1,1.0,1,1.6033016443252563,346,1.0,1
2346,1,1.0,1,2.103317975997925,347,0.0,1
2347,1,0.0,1,1.9973130226135254,348,0.0,1
2348,1,0.0,1,1.2823057174682617,349,0.0,1
2349,1,0.0,1,1.4263038635253906,350,0.0,1
2350,1,0.0,1,2.0563156604766846,351,0.0,1
2351,1,1.0,1,2.19332218170166,352,1.0,1
2352,1,1.0,1,1.4113041162490845,353,1.0,1
2353,1,1.0,1,1.6953004598617554,354,1.0,1
2354,1,1.0,1,1.4803032875061035,355,1.0,1
2355,1,1.0,1,1.343304991722107,356,0.0,1
2356,1,1.0,1,1.9903125762939453,357,1.0,1
2357,1,1.0,1,1.9783120155334473,358,1.0,1
2358,1,1.0,1,1.548302412033081,359,0.0,1
2359,1,1.0,1,2.0223140716552734,360,1.0,1
2360,1,1.0,1,1.1413075923919678,361,1.0,1
2361,1,1.0,1,1.642301082611084,362,1.0,1
2362,1,1.0,1,1.593301773071289,363,1.0,1
2363,1,1.0,1,1.9443104267120361,364,1.0,1
2364,1,1.0,1,1.318305253982544,365,1.0,1
2365,1,1.0,1,2.0053133964538574,366,1.0,1
2366,1,1.0,1,1.545302391052246,367,1.0,1
2367,1,1.0,1,1.4803032875061035,368,1.0,1
2368,1,1.0,1,1.4683034420013428,369,1.0,1
2369,1,1.0,1,1.3763046264648438,370,0.0,1
2370,1,1.0,1,1.9413104057312012,371,1.0,1
2371,1,1.0,1,1.7273004055023193,372,1.0,1
2372,1,1.0,1,1.9403102397918701,373,1.0,1
2373,1,1.0,1,1.66330087184906,374,1.0,1
2374,1,1.0,1,1.4033042192459106,375,1.0,1
2375,1,1.0,1,1.1123079061508179,376,0.0,1
2376,1,0.0,1,1.6113015413284302,377,1.0,1
2377,1,0.0,1,2.0153138637542725,378,0.0,1
2378,1,0.0,1,1.924309492111206,379,0.0,1
2379,1,0.0,1,1.5813019275665283,380,1.0,1
2380,1,0.0,1,1.5143027305603027,381,1.0,1
2381,1,0.0,1,1.4243040084838867,382,1.0,1
2382,1,0.0,1,1.1793071031570435,383,0.0,1
2383,1,0.0,1,1.7813029289245605,384,0.0,1
2384,1,0.0,1,2.3443291187286377,385,0.0,1
2385,1,1.0,1,1.7653021812438965,386,1.0,1
2386,1,1.0,1,1.5543022155761719,387,1.0,1
2387,1,1.0,1,1.3823044300079346,388,0.0,1
2388,1,0.0,1,1.889307975769043,389,0.0,1
2389,1,1.0,1,1.6023015975952148,390,1.0,1
2390,1,1.0,1,1.9313099384307861,391,0.0,1
2391,1,1.0,1,2.159320592880249,392,0.0,1
2392,1,1.0,1,1.6613008975982666,393,1.0,1
2393,1,1.0,1,1.1703071594238281,394,1.0,1
2394,1,1.0,1,1.3723046779632568,395,0.0,1
2395,1,1.0,1,2.2793262004852295,396,1.0,1
2396,1,1.0,1,1.5673021078109741,397,1.0,1
2397,1,1.0,1,1.1213078498840332,398,0.0,1
2398,1,0.0,1,2.411332368850708,399,1.0,1
2399,1,0.0,1,1.7253003120422363,400,1.0,1
2400,1,0.0,1,1.885307788848877,401,0.0,1
2401,1,0.0,1,1.5553022623062134,402,0.0,1
2402,1,0.0,1,1.7433011531829834,403,1.0,1
2403,1,0.0,1,1.4343037605285645,404,0.0,1
2404,1,1.0,1,1.90730881690979,405,1.0,1
2405,1,1.0,1,1.4653034210205078,406,0.0,1
2406,1,0.0,1,2.2513248920440674,407,0.0,1
2407,1,0.0,1,1.6433011293411255,408,0.0,1
2408,1,0.0,1,2.406332015991211,409,0.0,1
2409,1,1.0,1,2.0933175086975098,410,1.0,1
2410,1,1.0,1,1.6563010215759277,411,1.0,1
2411,1,1.0,1,1.3483049869537354,412,0.0,1
2412,1,1.0,1,1.938310146331787,413,1.0,1
2413,1,1.0,1,1.405304193496704,414,1.0,1
2414,1,1.0,1,1.5163028240203857,415,0.0,1
2415,1,1.0,1,1.902308464050293,416,1.0,1
2416,1,1.0,1,1.7553017139434814,417,0.0,1
2417,1,0.0,1,1.6243014335632324,418,0.0,1
2418,1,1.0,1,2.0243141651153564,419,0.0,1
2419,1,1.0,1,1.3193053007125854,420,1.0,1
2420,1,1.0,1,1.243306279182434,421,1.0,1
2421,1,1.0,1,1.4213039875030518,422,0.0,1
2422,1,1.0,1,1.5653021335601807,423,1.0,1
2423,1,1.0,1,1.1023080348968506,424,0.0,1
2424,1,0.0,1,2.0043132305145264,425,1.0,1
2425,1,0.0,1,1.2803058624267578,426,0.0,1
2426,1,1.0,1,1.7973036766052246,427,0.0,1
2427,1,1.0,1,1.7553017139434814,428,1.0,1
2428,1,1.0,1,1.2373063564300537,429,0.0,1
2429,1,0.0,1,1.1023080348968506,430,1.0,1
2430,1,0.0,1,1.126307725906372,431,1.0,1
2431,1,0.0,1,1.667300820350647,432,1.0,1
2432,1,0.0,1,1.5473023653030396,433,0.0,1
2433,1,0.0,1,1.5513023138046265,434,1.0,1
