,subj_idx,response,split_by,rt,trial,feedback,samp
0,0,1.0,0,1.5119954347610474,1,1.0,1
1,0,0.0,0,2.288996934890747,2,0.0,1
2,0,1.0,0,1.7719920873641968,3,1.0,1
3,0,1.0,0,1.6299939155578613,4,0.0,1
4,0,1.0,0,1.7479923963546753,5,1.0,1
5,0,0.0,0,1.6589934825897217,6,0.0,1
6,0,1.0,0,1.6569936275482178,7,0.0,1
7,0,0.0,0,1.3229974508285522,8,0.0,1
8,0,0.0,0,1.4819958209991455,9,1.0,1
9,0,0.0,0,1.6409938335418701,10,0.0,1
10,0,1.0,0,2.1529905796051025,11,1.0,1
11,0,1.0,0,1.3549973964691162,12,1.0,1
12,0,1.0,0,1.6749932765960693,13,1.0,1
13,0,1.0,0,1.4669959545135498,14,1.0,1
14,0,1.0,0,1.976989507675171,15,1.0,1
15,0,1.0,0,1.6179940700531006,16,1.0,1
16,0,1.0,0,1.5489948987960815,17,1.0,1
17,0,1.0,0,1.834991216659546,18,1.0,1
18,0,0.0,0,1.3179974555969238,19,0.0,1
19,0,1.0,0,1.5049954652786255,20,1.0,1
20,0,1.0,0,2.260995626449585,21,1.0,1
21,0,1.0,0,1.435996413230896,22,1.0,1
22,0,1.0,0,1.2909973859786987,23,1.0,1
23,0,1.0,0,1.4779958724975586,24,1.0,1
24,0,1.0,0,1.2939974069595337,25,0.0,1
25,0,0.0,0,1.9169902801513672,26,0.0,1
26,0,0.0,0,2.1899924278259277,27,0.0,1
27,0,0.0,0,1.9299900531768799,28,0.0,1
28,0,0.0,0,1.2289973497390747,29,0.0,1
29,0,1.0,0,1.811991572380066,30,1.0,1
30,0,0.0,0,1.6739933490753174,31,0.0,1
31,0,1.0,0,1.3239974975585938,32,0.0,1
32,0,0.0,0,2.0499885082244873,33,0.0,1
33,0,0.0,0,2.1569907665252686,34,0.0,1
34,0,1.0,0,1.7939918041229248,35,1.0,1
35,0,1.0,0,1.3269975185394287,36,1.0,1
36,0,0.0,0,1.4719959497451782,37,0.0,1
37,0,1.0,0,1.7709920406341553,38,1.0,1
38,0,1.0,0,1.5269951820373535,39,1.0,1
39,0,1.0,0,1.594994306564331,40,1.0,1
40,0,1.0,0,1.4009968042373657,41,1.0,1
41,0,0.0,0,1.6989929676055908,42,0.0,1
42,0,1.0,0,1.3169975280761719,43,1.0,1
43,0,1.0,0,1.4709959030151367,44,1.0,1
44,0,1.0,0,1.3579974174499512,45,1.0,1
45,0,1.0,0,1.711992859840393,46,0.0,1
46,0,0.0,0,1.5609947443008423,47,1.0,1
47,0,0.0,0,1.6189939975738525,48,0.0,1
48,0,1.0,0,2.0469884872436523,49,1.0,1
49,0,0.0,0,2.0889880657196045,50,0.0,1
50,0,1.0,0,1.3709971904754639,51,0.0,1
51,0,1.0,0,1.6139941215515137,52,1.0,1
52,0,1.0,0,1.7259926795959473,53,0.0,1
53,0,1.0,0,1.8609910011291504,54,0.0,1
54,0,0.0,0,1.5349950790405273,55,0.0,1
55,0,0.0,0,1.2499973773956299,56,0.0,1
56,0,0.0,0,1.6119941473007202,57,0.0,1
57,0,0.0,0,1.5889943838119507,58,0.0,1
58,0,0.0,0,2.0819880962371826,59,0.0,1
59,0,1.0,0,1.4989955425262451,60,1.0,1
60,0,1.0,0,1.2839974164962769,61,1.0,1
61,0,1.0,0,1.3289974927902222,62,1.0,1
62,0,1.0,0,1.2189972400665283,63,0.0,1
63,0,1.0,0,1.311997413635254,64,1.0,1
64,0,0.0,0,1.2289973497390747,65,0.0,1
65,0,1.0,0,1.2659974098205566,66,0.0,1
66,0,1.0,0,1.8199914693832397,67,1.0,1
67,0,1.0,0,1.3339974880218506,68,1.0,1
68,0,1.0,0,1.1889972686767578,69,0.0,1
69,0,1.0,0,1.784991979598999,70,1.0,1
70,0,1.0,0,1.9529898166656494,71,1.0,1
71,0,1.0,0,1.4559961557388306,72,1.0,1
72,0,0.0,0,1.2339973449707031,73,0.0,1
73,0,1.0,0,1.3399975299835205,74,1.0,1
74,0,1.0,0,1.9929893016815186,75,1.0,1
75,0,1.0,0,1.6649935245513916,76,1.0,1
76,0,1.0,0,1.3579974174499512,77,0.0,1
77,0,0.0,0,1.1959972381591797,78,0.0,1
78,0,0.0,0,1.740992546081543,79,0.0,1
79,0,1.0,0,2.2049930095672607,80,1.0,1
80,0,1.0,0,1.365997314453125,81,1.0,1
81,0,1.0,0,1.4469962120056152,82,1.0,1
82,0,1.0,0,2.0479884147644043,83,1.0,1
83,0,1.0,0,1.924990177154541,84,1.0,1
84,0,1.0,0,1.50199556350708,85,1.0,1
85,0,0.0,0,1.1959972381591797,86,0.0,1
86,0,1.0,0,1.6139941215515137,87,1.0,1
87,0,0.0,0,1.6259939670562744,88,0.0,1
88,0,1.0,0,1.6579935550689697,89,1.0,1
89,0,0.0,0,1.8949904441833496,90,0.0,1
90,0,1.0,0,1.9419898986816406,91,1.0,1
91,0,1.0,0,2.0439887046813965,92,1.0,1
92,0,1.0,0,1.8189914226531982,93,1.0,1
93,0,1.0,0,1.435996413230896,94,1.0,1
94,0,1.0,0,1.5449949502944946,95,1.0,1
95,0,1.0,0,1.4339964389801025,96,1.0,1
96,0,1.0,0,1.2669973373413086,97,1.0,1
97,0,1.0,0,1.6519936323165894,98,0.0,1
98,0,0.0,0,1.212997317314148,99,0.0,1
99,0,1.0,0,2.1189889907836914,100,1.0,1
100,0,0.0,0,1.646993637084961,101,1.0,1
101,0,0.0,0,1.2919974327087402,102,0.0,1
102,0,1.0,0,1.3779971599578857,103,1.0,1
103,0,1.0,0,2.0849881172180176,104,1.0,1
104,0,1.0,0,1.4829957485198975,105,1.0,1
105,0,1.0,0,1.5629947185516357,106,1.0,1
106,0,1.0,0,1.3439974784851074,107,1.0,1
107,0,1.0,0,1.4439963102340698,108,1.0,1
108,0,0.0,0,1.4289964437484741,109,0.0,1
109,0,1.0,0,1.527995228767395,110,0.0,1
110,0,1.0,0,1.462996006011963,111,0.0,1
111,0,0.0,0,1.2689974308013916,112,0.0,1
112,0,1.0,0,1.807991623878479,113,1.0,1
113,0,0.0,0,1.3689972162246704,114,0.0,1
114,0,0.0,0,1.7039929628372192,115,0.0,1
115,0,1.0,0,2.3429994583129883,116,0.0,1
116,0,1.0,0,1.5629947185516357,117,1.0,1
117,0,1.0,0,1.410996675491333,118,1.0,1
118,0,1.0,0,1.71599280834198,119,1.0,1
119,0,1.0,0,1.9199901819229126,120,1.0,1
120,0,1.0,0,1.4009968042373657,121,1.0,1
121,0,1.0,0,1.4519962072372437,122,1.0,1
122,0,1.0,0,1.8209915161132812,123,1.0,1
123,0,1.0,0,1.575994610786438,124,1.0,1
124,0,1.0,0,1.6659934520721436,125,1.0,1
125,0,1.0,0,1.8219914436340332,126,1.0,1
126,0,1.0,0,2.1639909744262695,127,1.0,1
127,0,1.0,0,1.4719959497451782,128,1.0,1
128,0,1.0,0,2.075988292694092,129,1.0,1
129,0,1.0,0,1.6139941215515137,130,0.0,1
130,0,0.0,0,1.301997423171997,131,1.0,1
131,0,0.0,0,1.4419963359832764,132,0.0,1
132,0,0.0,0,1.4989955425262451,133,0.0,1
133,0,1.0,0,1.7939918041229248,134,0.0,1
134,0,0.0,0,2.496006488800049,135,0.0,1
135,0,0.0,0,1.6189939975738525,136,0.0,1
136,0,0.0,0,1.593994379043579,137,0.0,1
137,0,0.0,0,1.4969955682754517,138,1.0,1
138,0,0.0,0,1.4339964389801025,139,1.0,1
139,0,0.0,0,2.028988838195801,140,0.0,1
140,0,1.0,0,1.6699934005737305,141,0.0,1
141,0,1.0,0,1.8639909029006958,142,1.0,1
142,0,1.0,0,1.6589934825897217,143,1.0,1
143,0,1.0,0,1.6379938125610352,144,1.0,1
144,0,1.0,0,1.6349937915802002,145,1.0,1
145,0,1.0,0,1.6709933280944824,146,1.0,1
146,0,1.0,0,1.7009930610656738,147,1.0,1
147,0,1.0,0,1.3299975395202637,148,0.0,1
148,0,0.0,0,1.36299729347229,149,0.0,1
149,0,0.0,0,1.4779958724975586,150,0.0,1
150,0,1.0,0,1.5159953832626343,151,1.0,1
151,0,1.0,0,1.4239965677261353,152,1.0,1
152,0,1.0,0,1.527995228767395,153,1.0,1
153,0,1.0,0,1.246997356414795,154,1.0,1
154,0,1.0,0,1.6179940700531006,155,1.0,1
155,0,1.0,0,1.6079941987991333,156,0.0,1
156,0,1.0,0,1.6659934520721436,157,1.0,1
157,0,0.0,0,1.7209928035736084,158,0.0,1
158,0,1.0,0,1.9169902801513672,159,1.0,1
159,0,1.0,0,1.3549973964691162,160,1.0,1
160,0,1.0,0,1.740992546081543,161,1.0,1
161,0,1.0,0,1.7039929628372192,162,1.0,1
162,0,1.0,0,1.30399751663208,163,0.0,1
163,0,1.0,0,1.966989517211914,164,1.0,1
164,0,0.0,0,1.270997405052185,165,0.0,1
165,0,0.0,0,1.1939972639083862,166,0.0,1
166,0,1.0,0,1.3249975442886353,167,1.0,1
167,0,1.0,0,1.2279973030090332,168,1.0,1
168,0,1.0,0,2.295997142791748,169,1.0,1
169,0,1.0,0,1.476995825767517,170,1.0,1
170,0,1.0,0,1.6439937353134155,171,1.0,1
171,0,1.0,0,1.3199975490570068,172,1.0,1
172,0,1.0,0,1.3989968299865723,173,1.0,1
173,0,1.0,0,1.711992859840393,174,1.0,1
174,0,1.0,0,1.6529936790466309,175,1.0,1
175,0,1.0,0,1.3329975605010986,176,1.0,1
176,0,1.0,0,1.2319972515106201,177,1.0,1
177,0,1.0,0,1.7799919843673706,178,1.0,1
178,0,1.0,0,1.5199953317642212,179,1.0,1
179,0,0.0,0,1.3459975719451904,180,0.0,1
180,0,1.0,0,1.646993637084961,181,1.0,1
181,0,1.0,0,1.2899974584579468,182,1.0,1
182,0,1.0,0,1.3799971342086792,183,1.0,1
183,0,1.0,0,1.369997262954712,184,1.0,1
184,0,0.0,0,1.8619909286499023,185,0.0,1
185,0,1.0,0,1.2339973449707031,186,0.0,1
186,0,0.0,0,2.253995418548584,187,0.0,1
187,0,0.0,0,2.319998264312744,188,1.0,1
188,0,1.0,0,1.5009955167770386,189,1.0,1
189,0,1.0,0,1.5229952335357666,190,1.0,1
190,0,1.0,0,1.9279900789260864,191,1.0,1
191,0,0.0,0,1.3999968767166138,192,0.0,1
192,0,1.0,0,1.5129953622817993,193,1.0,1
193,0,0.0,0,1.8959904909133911,194,0.0,1
194,0,1.0,0,1.6629934310913086,195,1.0,1
195,0,1.0,0,1.3029974699020386,196,1.0,1
196,0,1.0,0,1.3429975509643555,197,0.0,1
197,0,0.0,0,1.4229965209960938,198,0.0,1
198,0,0.0,0,1.601994276046753,199,0.0,1
199,0,0.0,0,1.7079929113388062,200,0.0,1
200,0,1.0,0,1.527995228767395,201,1.0,1
201,0,1.0,0,1.7399924993515015,202,1.0,1
202,0,1.0,0,1.2339973449707031,203,1.0,1
203,0,1.0,0,1.5409950017929077,204,1.0,1
204,0,1.0,0,1.4019968509674072,205,1.0,1
205,0,1.0,0,1.5609947443008423,206,1.0,1
206,0,1.0,0,1.2509973049163818,207,1.0,1
207,0,0.0,0,1.5919944047927856,208,0.0,1
208,0,1.0,0,1.3639973402023315,209,1.0,1
209,0,1.0,0,1.3989968299865723,210,1.0,1
210,0,1.0,0,2.1429901123046875,211,1.0,1
211,0,1.0,0,2.0989880561828613,212,0.0,1
212,0,1.0,0,1.9339900016784668,213,1.0,1
213,0,1.0,0,1.7509922981262207,214,0.0,1
214,0,0.0,0,2.226994037628174,215,0.0,1
215,0,1.0,0,1.5479949712753296,216,1.0,1
216,0,1.0,0,1.3729971647262573,217,1.0,1
217,0,1.0,0,1.3399975299835205,218,1.0,1
218,0,1.0,0,2.276996374130249,219,1.0,1
219,0,0.0,0,1.2659974098205566,220,0.0,1
220,0,1.0,0,1.3709971904754639,221,1.0,1
221,0,1.0,0,1.3639973402023315,222,1.0,1
222,0,1.0,0,1.3089975118637085,223,0.0,1
223,0,1.0,0,1.3939969539642334,224,1.0,1
224,0,0.0,0,1.7269926071166992,225,0.0,1
225,0,1.0,0,1.4169965982437134,226,1.0,1
226,0,1.0,0,1.4219965934753418,227,1.0,1
227,0,1.0,0,1.3129974603652954,228,1.0,1
228,0,1.0,0,1.4349963665008545,229,1.0,1
229,0,1.0,0,1.3159974813461304,230,1.0,1
230,0,1.0,0,1.7129929065704346,231,1.0,1
231,0,1.0,0,1.2859973907470703,232,1.0,1
232,0,1.0,0,1.8709907531738281,233,1.0,1
233,0,1.0,0,2.021988868713379,234,1.0,1
234,0,1.0,0,1.5109953880310059,235,1.0,1
235,0,1.0,0,1.966989517211914,236,1.0,1
236,0,0.0,0,1.2149972915649414,237,0.0,1
237,0,1.0,0,1.600994348526001,238,1.0,1
238,0,1.0,0,2.0499885082244873,239,0.0,1
239,0,1.0,0,1.3639973402023315,240,1.0,1
240,0,1.0,0,1.8359912633895874,241,1.0,1
241,0,1.0,0,1.4489961862564087,242,0.0,1
242,0,1.0,0,2.0989880561828613,243,0.0,1
243,0,1.0,0,1.593994379043579,244,1.0,1
244,0,0.0,0,1.7619922161102295,245,0.0,1
245,0,1.0,0,1.5859944820404053,246,1.0,1
246,0,1.0,0,1.6709933280944824,247,0.0,1
247,0,1.0,0,2.3860015869140625,248,1.0,1
248,0,1.0,0,1.4479962587356567,249,1.0,1
249,0,1.0,0,1.6279939413070679,250,1.0,1
250,0,1.0,0,1.3329975605010986,251,1.0,1
251,0,1.0,0,1.811991572380066,252,1.0,1
252,0,1.0,0,2.1899924278259277,253,1.0,1
253,0,1.0,0,1.3439974784851074,254,1.0,1
254,0,1.0,0,1.6549935340881348,255,1.0,1
255,0,1.0,0,1.7069928646087646,256,1.0,1
256,0,1.0,0,1.484995722770691,257,1.0,1
257,0,1.0,0,1.4309964179992676,258,1.0,1
258,0,1.0,0,1.1959972381591797,259,1.0,1
259,0,1.0,0,1.3059974908828735,260,0.0,1
260,0,1.0,0,1.4339964389801025,261,1.0,1
261,0,1.0,0,1.9329900741577148,262,1.0,1
262,0,1.0,0,1.7009930610656738,263,0.0,1
263,0,0.0,0,1.4009968042373657,264,1.0,1
264,0,0.0,0,1.6479936838150024,265,1.0,1
265,0,0.0,0,1.7059929370880127,266,0.0,1
266,0,1.0,0,1.786991834640503,267,1.0,1
267,0,1.0,0,1.3909969329833984,268,1.0,1
268,0,1.0,0,1.7229926586151123,269,1.0,1
269,0,0.0,0,1.9319900274276733,270,0.0,1
270,0,1.0,0,1.3749971389770508,271,1.0,1
271,0,1.0,0,1.3059974908828735,272,0.0,1
272,0,0.0,0,1.5009955167770386,273,0.0,1
273,0,0.0,0,1.6139941215515137,274,0.0,1
274,0,1.0,0,1.3089975118637085,275,1.0,1
275,0,0.0,0,2.3580002784729004,276,0.0,1
276,0,1.0,0,2.058988332748413,277,1.0,1
277,0,1.0,0,1.6919931173324585,278,1.0,1
278,0,1.0,0,1.337997555732727,279,0.0,1
279,0,1.0,0,1.5459949970245361,280,1.0,1
280,0,1.0,0,1.737992525100708,281,1.0,1
281,0,1.0,0,1.7029929161071777,282,1.0,1
282,0,1.0,0,1.7629921436309814,283,1.0,1
283,0,1.0,0,1.388996958732605,284,1.0,1
284,0,1.0,0,1.39199697971344,285,1.0,1
285,0,1.0,0,2.1089885234832764,286,1.0,1
286,0,1.0,0,1.3279974460601807,287,1.0,1
287,0,1.0,0,1.2719974517822266,288,1.0,1
288,0,1.0,0,1.4309964179992676,289,0.0,1
289,0,1.0,0,1.6809933185577393,290,1.0,1
290,0,0.0,0,1.3249975442886353,291,1.0,1
291,0,0.0,0,1.9149901866912842,292,0.0,1
292,0,1.0,0,2.0009891986846924,293,0.0,1
293,0,1.0,0,1.5419950485229492,294,1.0,1
294,0,1.0,0,1.3599973917007446,295,1.0,1
295,0,1.0,0,1.7909917831420898,296,0.0,1
296,0,1.0,0,1.5349950790405273,297,0.0,1
297,0,0.0,0,1.571994662284851,298,0.0,1
298,0,0.0,0,1.3179974555969238,299,0.0,1
299,0,1.0,0,1.5899944305419922,300,1.0,1
300,0,0.0,0,1.6789932250976562,301,0.0,1
301,0,1.0,0,1.855991005897522,302,1.0,1
302,0,1.0,0,1.3709971904754639,303,1.0,1
303,0,1.0,0,1.3729971647262573,304,0.0,1
304,0,0.0,0,2.1249892711639404,305,0.0,1
305,0,0.0,0,1.9009904861450195,306,0.0,1
306,0,1.0,0,1.8979904651641846,307,1.0,1
307,0,1.0,0,1.277997374534607,308,1.0,1
308,0,1.0,0,1.5369950532913208,309,1.0,1
309,0,0.0,0,1.277997374534607,310,1.0,1
310,0,0.0,0,1.5229952335357666,311,0.0,1
311,0,1.0,0,1.5839945077896118,312,1.0,1
312,0,0.0,0,1.3509974479675293,313,0.0,1
313,0,0.0,0,1.6159940958023071,314,0.0,1
314,0,1.0,0,1.7579922676086426,315,1.0,1
315,0,1.0,0,1.5419950485229492,316,0.0,1
316,0,1.0,0,2.1369898319244385,317,1.0,1
317,0,1.0,0,1.3099974393844604,318,0.0,1
318,0,1.0,0,1.638993740081787,319,1.0,1
319,0,1.0,0,1.740992546081543,320,1.0,1
320,0,1.0,0,1.334997534751892,321,1.0,1
321,0,1.0,0,1.369997262954712,322,0.0,1
322,0,0.0,0,1.3239974975585938,323,0.0,1
323,0,1.0,0,1.5599948167800903,324,1.0,1
324,0,1.0,0,1.903990387916565,325,1.0,1
325,0,1.0,0,1.3469974994659424,326,0.0,1
326,0,1.0,0,2.1689913272857666,327,1.0,1
327,0,1.0,0,1.476995825767517,328,1.0,1
328,0,1.0,0,1.2939974069595337,329,0.0,1
329,0,0.0,0,1.3969968557357788,330,0.0,1
330,0,0.0,0,1.5039955377578735,331,0.0,1
331,0,1.0,0,2.311997890472412,332,1.0,1
332,0,0.0,0,1.5529948472976685,333,0.0,1
333,0,1.0,0,1.4609960317611694,334,1.0,1
334,0,1.0,0,1.4529961347579956,335,1.0,1
335,0,1.0,0,1.7489924430847168,336,1.0,1
336,0,1.0,0,1.3509974479675293,337,1.0,1
337,0,1.0,0,1.4389963150024414,338,0.0,1
338,0,0.0,0,1.3899970054626465,339,0.0,1
339,0,0.0,0,1.6799932718276978,340,0.0,1
340,0,1.0,0,2.0339887142181396,341,1.0,1
341,0,1.0,0,1.572994589805603,342,1.0,1
342,0,1.0,0,1.2939974069595337,343,1.0,1
343,0,0.0,0,1.788991928100586,344,0.0,1
344,0,1.0,0,1.73899245262146,345,1.0,1
345,0,1.0,0,1.3149974346160889,346,1.0,1
346,0,1.0,0,1.3599973917007446,347,0.0,1
347,0,0.0,0,1.7109928131103516,348,0.0,1
348,0,1.0,0,1.4179966449737549,349,1.0,1
349,0,0.0,0,1.7649922370910645,350,0.0,1
350,0,1.0,0,1.4119967222213745,351,1.0,1
351,0,1.0,0,1.4779958724975586,352,1.0,1
352,0,0.0,0,1.3899970054626465,353,0.0,1
353,0,1.0,0,1.5669946670532227,354,1.0,1
354,0,1.0,0,2.007988929748535,355,1.0,1
355,0,0.0,0,1.3489974737167358,356,0.0,1
356,0,1.0,0,1.5679947137832642,357,0.0,1
357,0,0.0,0,1.509995460510254,358,1.0,1
358,0,0.0,0,1.3529974222183228,359,0.0,1
359,0,1.0,0,1.5429949760437012,360,1.0,1
360,0,1.0,0,1.4609960317611694,361,1.0,1
361,0,0.0,0,1.3209974765777588,362,1.0,1
362,0,1.0,0,1.310997486114502,363,0.0,1
363,0,1.0,0,1.7079929113388062,364,1.0,1
364,0,1.0,0,1.3529974222183228,365,1.0,1
365,0,1.0,0,1.3969968557357788,366,0.0,1
366,0,0.0,0,1.7319926023483276,367,0.0,1
367,0,0.0,0,1.476995825767517,368,0.0,1
368,0,1.0,0,1.7689921855926514,369,1.0,1
369,0,1.0,0,1.6989929676055908,370,1.0,1
370,0,1.0,0,1.5179953575134277,371,1.0,1
371,0,1.0,0,1.6479936838150024,372,1.0,1
372,0,1.0,0,1.2879974842071533,373,1.0,1
373,0,1.0,0,1.7979917526245117,374,0.0,1
374,0,1.0,0,1.5089954137802124,375,1.0,1
375,0,1.0,0,1.5609947443008423,376,1.0,1
376,0,0.0,0,1.7619922161102295,377,0.0,1
377,0,1.0,0,1.6059942245483398,378,1.0,1
378,0,1.0,0,1.7989916801452637,379,1.0,1
379,0,1.0,0,1.3489974737167358,380,0.0,1
380,0,1.0,0,2.1789917945861816,381,1.0,1
381,0,1.0,0,1.432996392250061,382,1.0,1
382,0,1.0,0,1.803991675376892,383,1.0,1
383,0,1.0,0,1.6349937915802002,384,1.0,1
384,0,1.0,0,1.601994276046753,385,1.0,1
385,0,1.0,0,1.2219972610473633,386,1.0,1
386,0,1.0,0,1.409996747970581,387,0.0,1
387,0,1.0,0,1.9809894561767578,388,1.0,1
388,0,0.0,0,1.5389950275421143,389,0.0,1
389,0,1.0,0,1.7629921436309814,390,1.0,1
390,0,1.0,0,1.6149940490722656,391,1.0,1
391,0,1.0,0,1.6379938125610352,392,1.0,1
392,0,1.0,0,1.2609974145889282,393,1.0,1
393,0,1.0,0,1.3279974460601807,394,1.0,1
394,0,1.0,0,1.2359973192214966,395,1.0,1
395,0,1.0,0,1.5929943323135376,396,1.0,1
396,0,1.0,0,1.5559948682785034,397,1.0,1
397,0,1.0,0,2.1589908599853516,398,1.0,1
398,0,1.0,0,1.2699973583221436,399,1.0,1
399,0,1.0,0,1.4039968252182007,400,1.0,1
400,0,1.0,0,1.301997423171997,401,1.0,1
401,0,1.0,0,1.7489924430847168,402,1.0,1
402,0,1.0,0,1.3829970359802246,403,1.0,1
403,0,1.0,0,1.3439974784851074,404,1.0,1
404,0,1.0,0,1.5689946413040161,405,1.0,1
405,0,1.0,0,1.4249964952468872,406,1.0,1
406,0,1.0,0,1.851991057395935,407,1.0,1
407,0,0.0,0,1.7269926071166992,408,1.0,1
408,0,1.0,0,2.4080023765563965,409,1.0,1
409,0,1.0,0,1.413996696472168,410,1.0,1
410,0,1.0,0,1.8759907484054565,411,1.0,1
411,0,0.0,0,1.365997314453125,412,0.0,1
412,0,1.0,0,1.3969968557357788,413,1.0,1
413,0,1.0,0,1.5269951820373535,414,1.0,1
414,0,1.0,0,1.8149914741516113,415,1.0,1
415,0,1.0,0,1.5749945640563965,416,1.0,1
416,0,1.0,0,1.3679972887039185,417,1.0,1
417,0,1.0,0,1.3739972114562988,418,1.0,1
418,0,1.0,0,1.781991958618164,419,1.0,1
419,0,0.0,0,1.5879944562911987,420,0.0,1
420,0,1.0,0,2.024988889694214,421,1.0,1
421,0,1.0,0,1.7329926490783691,422,1.0,1
422,0,1.0,0,1.2309973239898682,423,0.0,1
423,0,0.0,0,1.239997386932373,424,0.0,1
424,0,1.0,0,1.6559935808181763,425,1.0,1
425,0,1.0,0,1.572994589805603,426,1.0,1
426,0,1.0,0,1.3779971599578857,427,0.0,1
427,0,0.0,0,1.5139954090118408,428,0.0,1
428,0,0.0,0,1.3579974174499512,429,0.0,1
429,0,0.0,0,1.298997402191162,430,0.0,1
430,0,0.0,0,1.5529948472976685,431,0.0,1
431,0,0.0,0,1.3209974765777588,432,0.0,1
432,0,1.0,0,2.013988971710205,433,1.0,1
433,0,1.0,0,2.012989044189453,434,1.0,1
434,0,1.0,0,1.8129916191101074,435,0.0,1
435,0,0.0,0,2.017988920211792,436,0.0,1
436,0,0.0,0,1.5789945125579834,437,1.0,1
437,0,0.0,0,1.6159940958023071,438,0.0,1
438,0,0.0,0,1.453996181488037,439,0.0,1
439,0,0.0,0,1.9159902334213257,440,0.0,1
440,0,0.0,0,1.8579909801483154,441,0.0,1
441,0,0.0,0,1.341997504234314,442,0.0,1
442,0,1.0,0,2.235994338989258,443,1.0,1
443,0,1.0,0,1.5869944095611572,444,1.0,1
444,0,1.0,0,1.527995228767395,445,1.0,1
445,0,1.0,0,1.274997353553772,446,1.0,1
446,0,1.0,0,1.8469910621643066,447,1.0,1
447,0,1.0,0,1.7219927310943604,448,0.0,1
448,0,0.0,0,1.965989589691162,449,0.0,1
449,0,1.0,0,2.3640003204345703,450,1.0,1
450,0,1.0,0,1.5889943838119507,451,1.0,1
451,0,1.0,0,1.8689908981323242,452,0.0,1
452,0,1.0,0,1.3599973917007446,453,1.0,1
453,0,1.0,0,1.641993761062622,454,1.0,1
454,0,1.0,0,1.3229974508285522,455,1.0,1
455,0,0.0,0,1.8019917011260986,456,0.0,1
456,0,1.0,0,1.6609935760498047,457,1.0,1
457,0,1.0,0,1.2919974327087402,458,1.0,1
458,0,0.0,0,1.4749958515167236,459,0.0,1
459,0,1.0,0,1.2659974098205566,460,1.0,1
460,0,1.0,0,1.6409938335418701,461,1.0,1
461,0,1.0,0,1.5349950790405273,462,1.0,1
462,0,1.0,0,1.4019968509674072,463,0.0,1
463,0,1.0,0,2.1199889183044434,464,1.0,1
464,0,1.0,0,1.6999930143356323,465,1.0,1
465,0,1.0,0,1.9179902076721191,466,1.0,1
466,0,1.0,0,1.3469974994659424,467,1.0,1
467,0,1.0,0,1.7949917316436768,468,1.0,1
468,0,1.0,0,1.4489961862564087,469,1.0,1
469,0,1.0,0,1.50199556350708,470,0.0,1
470,0,1.0,0,1.811991572380066,471,1.0,1
471,0,1.0,0,1.8669908046722412,472,0.0,1
472,0,0.0,0,2.1709914207458496,473,0.0,1
473,0,1.0,0,1.3789970874786377,474,1.0,1
474,0,0.0,0,1.6269938945770264,475,1.0,1
475,0,1.0,0,1.7329926490783691,476,1.0,1
476,0,0.0,0,1.2909973859786987,477,0.0,1
477,0,0.0,0,1.234997272491455,478,0.0,1
478,0,1.0,0,1.8989903926849365,479,1.0,1
479,0,1.0,0,1.3479975461959839,480,1.0,1
480,0,1.0,0,1.280997395515442,481,1.0,1
481,0,1.0,0,1.461996078491211,482,1.0,1
482,0,1.0,0,1.3649972677230835,483,1.0,1
483,0,1.0,0,1.5349950790405273,484,1.0,1
484,0,1.0,0,1.6739933490753174,485,1.0,1
485,0,1.0,0,1.476995825767517,486,1.0,1
486,0,1.0,0,1.8169915676116943,487,1.0,1
487,0,1.0,0,1.7969918251037598,488,0.0,1
488,0,1.0,0,2.0869879722595215,489,1.0,1
489,0,1.0,0,1.947989821434021,490,1.0,1
490,0,1.0,0,1.6139941215515137,491,1.0,1
491,0,1.0,0,1.3509974479675293,492,1.0,1
492,0,1.0,0,1.4499962329864502,493,1.0,1
493,0,1.0,0,1.6039942502975464,494,0.0,1
494,0,0.0,0,1.638993740081787,495,0.0,1
495,0,0.0,0,1.7109928131103516,496,0.0,1
496,0,1.0,0,1.8449912071228027,497,1.0,1
497,0,1.0,0,2.229994297027588,498,1.0,1
498,0,1.0,0,1.4049967527389526,499,1.0,1
499,0,1.0,0,1.644993782043457,500,1.0,1
500,0,1.0,1,1.9829893112182617,1,1.0,1
501,0,0.0,1,1.6629934310913086,2,1.0,1
502,0,0.0,1,1.5589947700500488,3,1.0,1
503,0,0.0,1,2.29099702835083,4,1.0,1
504,0,0.0,1,1.9589896202087402,5,0.0,1
505,0,1.0,1,1.3959969282150269,6,1.0,1
506,0,1.0,1,1.7929918766021729,7,1.0,1
507,0,1.0,1,1.4719959497451782,8,1.0,1
508,0,1.0,1,1.9889893531799316,9,0.0,1
509,0,0.0,1,1.6349937915802002,10,0.0,1
510,0,0.0,1,1.2219972610473633,11,1.0,1
511,0,0.0,1,1.3289974927902222,12,1.0,1
512,0,0.0,1,1.479995846748352,13,1.0,1
513,0,0.0,1,1.301997423171997,14,0.0,1
514,0,0.0,1,1.4459962844848633,15,0.0,1
515,0,1.0,1,1.8469910621643066,16,1.0,1
516,0,1.0,1,1.3369975090026855,17,1.0,1
517,0,1.0,1,1.3979969024658203,18,1.0,1
518,0,1.0,1,1.644993782043457,19,1.0,1
519,0,1.0,1,1.596994400024414,20,0.0,1
520,0,1.0,1,2.289997100830078,21,1.0,1
521,0,1.0,1,1.4199966192245483,22,1.0,1
522,0,1.0,1,1.5339951515197754,23,0.0,1
523,0,0.0,1,1.8509910106658936,24,0.0,1
524,0,0.0,1,1.4029967784881592,25,0.0,1
525,0,0.0,1,2.071988105773926,26,0.0,1
526,0,0.0,1,1.829991340637207,27,0.0,1
527,0,0.0,1,2.1099886894226074,28,0.0,1
528,0,0.0,1,1.6509935855865479,29,0.0,1
529,0,1.0,1,2.055988311767578,30,1.0,1
530,0,1.0,1,1.4119967222213745,31,0.0,1
531,0,0.0,1,1.4119967222213745,32,0.0,1
532,0,1.0,1,1.9019904136657715,33,1.0,1
533,0,0.0,1,1.3639973402023315,34,1.0,1
534,0,0.0,1,1.2029972076416016,35,0.0,1
535,0,0.0,1,1.3639973402023315,36,0.0,1
536,0,0.0,1,1.2579973936080933,37,0.0,1
537,0,1.0,1,2.1919922828674316,38,1.0,1
538,0,1.0,1,1.5109953880310059,39,0.0,1
539,0,0.0,1,1.5679947137832642,40,0.0,1
540,0,1.0,1,1.623993992805481,41,0.0,1
541,0,0.0,1,1.3069974184036255,42,0.0,1
542,0,1.0,1,1.828991413116455,43,0.0,1
543,0,0.0,1,1.6769933700561523,44,1.0,1
544,0,0.0,1,1.2579973936080933,45,1.0,1
545,0,0.0,1,1.236997365951538,46,0.0,1
546,0,1.0,1,1.410996675491333,47,1.0,1
547,0,1.0,1,1.2849974632263184,48,1.0,1
548,0,1.0,1,1.734992504119873,49,0.0,1
549,0,0.0,1,1.8379912376403809,50,0.0,1
550,0,1.0,1,1.8669908046722412,51,1.0,1
551,0,1.0,1,1.36299729347229,52,1.0,1
552,0,1.0,1,1.4989955425262451,53,1.0,1
553,0,1.0,1,2.0859880447387695,54,1.0,1
554,0,0.0,1,1.3809970617294312,55,1.0,1
555,0,1.0,1,1.4429962635040283,56,1.0,1
556,0,1.0,1,1.6119941473007202,57,1.0,1
557,0,0.0,1,1.6379938125610352,58,0.0,1
558,0,1.0,1,1.4409962892532349,59,1.0,1
559,0,0.0,1,1.600994348526001,60,0.0,1
560,0,1.0,1,1.4659960269927979,61,0.0,1
561,0,0.0,1,2.0389885902404785,62,1.0,1
562,0,0.0,1,1.5309951305389404,63,1.0,1
563,0,0.0,1,1.484995722770691,64,1.0,1
564,0,0.0,1,1.5049954652786255,65,0.0,1
565,0,0.0,1,1.36299729347229,66,1.0,1
566,0,0.0,1,1.4939956665039062,67,0.0,1
567,0,1.0,1,2.019989013671875,68,1.0,1
568,0,1.0,1,1.3979969024658203,69,0.0,1
569,0,1.0,1,2.014988899230957,70,0.0,1
570,0,0.0,1,1.7399924993515015,71,0.0,1
571,0,0.0,1,1.4239965677261353,72,0.0,1
572,0,1.0,1,1.7879918813705444,73,1.0,1
573,0,1.0,1,1.6179940700531006,74,1.0,1
574,0,1.0,1,1.2629973888397217,75,1.0,1
575,0,0.0,1,1.365997314453125,76,0.0,1
576,0,1.0,1,1.365997314453125,77,1.0,1
577,0,1.0,1,1.4209965467453003,78,1.0,1
578,0,1.0,1,1.2249972820281982,79,1.0,1
579,0,1.0,1,1.2939974069595337,80,1.0,1
580,0,1.0,1,1.462996006011963,81,0.0,1
581,0,0.0,1,1.203997254371643,82,0.0,1
582,0,0.0,1,1.9979891777038574,83,1.0,1
583,0,0.0,1,1.479995846748352,84,0.0,1
584,0,1.0,1,2.1669912338256836,85,1.0,1
585,0,0.0,1,1.3589973449707031,86,0.0,1
586,0,1.0,1,1.5609947443008423,87,1.0,1
587,0,1.0,1,1.9059903621673584,88,0.0,1
588,0,0.0,1,1.7299926280975342,89,0.0,1
589,0,1.0,1,1.3469974994659424,90,1.0,1
590,0,0.0,1,1.6109941005706787,91,0.0,1
591,0,1.0,1,1.734992504119873,92,1.0,1
592,0,1.0,1,1.3679972887039185,93,0.0,1
593,0,0.0,1,1.413996696472168,94,0.0,1
594,0,1.0,1,1.6309938430786133,95,1.0,1
595,0,0.0,1,1.3479975461959839,96,0.0,1
596,0,1.0,1,1.2569973468780518,97,1.0,1
597,0,1.0,1,1.6119941473007202,98,1.0,1
598,0,1.0,1,1.3769971132278442,99,1.0,1
599,0,1.0,1,1.338997483253479,100,1.0,1
600,0,0.0,1,1.803991675376892,101,0.0,1
601,0,1.0,1,1.3989968299865723,102,1.0,1
602,0,1.0,1,1.203997254371643,103,1.0,1
603,0,1.0,1,1.3649972677230835,104,1.0,1
604,0,1.0,1,1.2879974842071533,105,1.0,1
605,0,0.0,1,1.5689946413040161,106,0.0,1
606,0,1.0,1,1.8969905376434326,107,1.0,1
607,0,1.0,1,1.3579974174499512,108,0.0,1
608,0,0.0,1,1.830991268157959,109,0.0,1
609,0,0.0,1,2.1549906730651855,110,0.0,1
610,0,0.0,1,1.2639973163604736,111,0.0,1
611,0,1.0,1,1.506995439529419,112,1.0,1
612,0,1.0,1,1.7169928550720215,113,0.0,1
613,0,0.0,1,1.2089972496032715,114,0.0,1
614,0,1.0,1,1.6299939155578613,115,1.0,1
615,0,1.0,1,1.6339938640594482,116,1.0,1
616,0,1.0,1,1.4049967527389526,117,1.0,1
617,0,1.0,1,1.366997241973877,118,1.0,1
618,0,1.0,1,1.9969892501831055,119,1.0,1
619,0,0.0,1,2.0309886932373047,120,1.0,1
620,0,1.0,1,1.8649909496307373,121,1.0,1
621,0,1.0,1,1.6559935808181763,122,0.0,1
622,0,0.0,1,1.4429962635040283,123,0.0,1
623,0,1.0,1,1.973989486694336,124,0.0,1
624,0,1.0,1,1.8829905986785889,125,1.0,1
625,0,1.0,1,1.5379951000213623,126,0.0,1
626,0,0.0,1,1.307997465133667,127,1.0,1
627,0,0.0,1,1.310997486114502,128,0.0,1
628,0,0.0,1,1.4909956455230713,129,0.0,1
629,0,1.0,1,1.6269938945770264,130,1.0,1
630,0,1.0,1,1.3469974994659424,131,1.0,1
631,0,0.0,1,1.4749958515167236,132,0.0,1
632,0,1.0,1,1.4409962892532349,133,1.0,1
633,0,1.0,1,1.9759894609451294,134,1.0,1
634,0,1.0,1,1.3169975280761719,135,1.0,1
635,0,1.0,1,1.5749945640563965,136,1.0,1
636,0,1.0,1,1.3289974927902222,137,1.0,1
637,0,1.0,1,1.5049954652786255,138,1.0,1
638,0,1.0,1,1.5959943532943726,139,0.0,1
639,0,0.0,1,1.6149940490722656,140,0.0,1
640,0,0.0,1,1.5339951515197754,141,0.0,1
641,0,1.0,1,1.7129929065704346,142,1.0,1
642,0,1.0,1,1.4639960527420044,143,0.0,1
643,0,0.0,1,1.9119902849197388,144,0.0,1
644,0,0.0,1,1.4119967222213745,145,0.0,1
645,0,1.0,1,1.369997262954712,146,1.0,1
646,0,1.0,1,1.4899957180023193,147,1.0,1
647,0,1.0,1,1.5109953880310059,148,1.0,1
648,0,1.0,1,1.4979956150054932,149,1.0,1
649,0,0.0,1,1.3509974479675293,150,0.0,1
650,0,1.0,1,1.3359975814819336,151,1.0,1
651,0,1.0,1,1.435996413230896,152,0.0,1
652,0,0.0,1,1.6799932718276978,153,0.0,1
653,0,0.0,1,2.0389885902404785,154,1.0,1
654,0,0.0,1,1.8849906921386719,155,0.0,1
655,0,1.0,1,1.50199556350708,156,1.0,1
656,0,1.0,1,1.4049967527389526,157,1.0,1
657,0,1.0,1,1.579994559288025,158,0.0,1
658,0,1.0,1,1.689993143081665,159,0.0,1
659,0,0.0,1,1.924990177154541,160,0.0,1
660,0,1.0,1,1.9139902591705322,161,1.0,1
661,0,0.0,1,1.3269975185394287,162,0.0,1
662,0,1.0,1,1.2929974794387817,163,1.0,1
663,0,1.0,1,1.9529898166656494,164,1.0,1
664,0,1.0,1,1.6409938335418701,165,1.0,1
665,0,1.0,1,1.4179966449737549,166,1.0,1
666,0,1.0,1,1.6339938640594482,167,0.0,1
667,0,1.0,1,1.667993426322937,168,1.0,1
668,0,1.0,1,1.3579974174499512,169,0.0,1
669,0,1.0,1,1.6849932670593262,170,0.0,1
670,0,1.0,1,1.5109953880310059,171,1.0,1
671,0,1.0,1,1.926990032196045,172,1.0,1
672,0,1.0,1,1.9089903831481934,173,1.0,1
673,0,1.0,1,1.439996361732483,174,1.0,1
674,0,1.0,1,1.5039955377578735,175,1.0,1
675,0,1.0,1,1.807991623878479,176,1.0,1
676,0,1.0,1,1.8909904956817627,177,0.0,1
677,0,0.0,1,1.4559961557388306,178,1.0,1
678,0,0.0,1,1.991989254951477,179,0.0,1
679,0,0.0,1,1.3579974174499512,180,0.0,1
680,0,0.0,1,2.3640003204345703,181,1.0,1
681,0,0.0,1,1.3319975137710571,182,1.0,1
682,0,0.0,1,1.4829957485198975,183,0.0,1
683,0,0.0,1,1.3189975023269653,184,0.0,1
684,0,0.0,1,1.2359973192214966,185,0.0,1
685,0,1.0,1,1.3159974813461304,186,1.0,1
686,0,1.0,1,1.829991340637207,187,1.0,1
687,0,1.0,1,1.528995156288147,188,1.0,1
688,0,1.0,1,1.851991057395935,189,1.0,1
689,0,1.0,1,1.2589973211288452,190,0.0,1
690,0,1.0,1,1.3989968299865723,191,0.0,1
691,0,0.0,1,1.2619973421096802,192,1.0,1
692,0,0.0,1,1.3779971599578857,193,0.0,1
693,0,1.0,1,1.6619935035705566,194,1.0,1
694,0,1.0,1,1.2969974279403687,195,0.0,1
695,0,1.0,1,1.8539910316467285,196,1.0,1
696,0,0.0,1,1.369997262954712,197,0.0,1
697,0,1.0,1,1.2149972915649414,198,1.0,1
698,0,1.0,1,1.596994400024414,199,1.0,1
699,0,1.0,1,1.671993374824524,200,1.0,1
700,0,0.0,1,1.4829957485198975,201,1.0,1
701,0,1.0,1,1.5369950532913208,202,0.0,1
702,0,0.0,1,1.2669973373413086,203,0.0,1
703,0,0.0,1,1.2949974536895752,204,1.0,1
704,0,0.0,1,2.0799880027770996,205,1.0,1
705,0,0.0,1,1.236997365951538,206,0.0,1
706,0,1.0,1,2.3820013999938965,207,1.0,1
707,0,1.0,1,1.6609935760498047,208,0.0,1
708,0,1.0,1,1.71599280834198,209,1.0,1
709,0,1.0,1,2.0299887657165527,210,1.0,1
710,0,0.0,1,1.2419973611831665,211,0.0,1
711,0,1.0,1,1.2949974536895752,212,1.0,1
712,0,0.0,1,1.789991855621338,213,1.0,1
713,0,1.0,1,1.8239914178848267,214,1.0,1
714,0,0.0,1,1.3859970569610596,215,0.0,1
715,0,1.0,1,1.733992576599121,216,1.0,1
716,0,1.0,1,1.6289939880371094,217,0.0,1
717,0,0.0,1,2.0829880237579346,218,0.0,1
718,0,0.0,1,1.1789971590042114,219,0.0,1
719,0,1.0,1,1.3309974670410156,220,1.0,1
720,0,1.0,1,1.462996006011963,221,1.0,1
721,0,1.0,1,1.3599973917007446,222,1.0,1
722,0,1.0,1,1.2999974489212036,223,1.0,1
723,0,1.0,1,1.3169975280761719,224,1.0,1
724,0,1.0,1,1.6289939880371094,225,1.0,1
725,0,1.0,1,1.5479949712753296,226,1.0,1
726,0,1.0,1,1.9309899806976318,227,0.0,1
727,0,1.0,1,1.7919918298721313,228,1.0,1
728,0,1.0,1,1.4209965467453003,229,1.0,1
729,0,1.0,1,1.2569973468780518,230,1.0,1
730,0,1.0,1,1.6999930143356323,231,1.0,1
731,0,1.0,1,1.7479923963546753,232,1.0,1
732,0,1.0,1,1.4079967737197876,233,0.0,1
733,0,0.0,1,1.3939969539642334,234,0.0,1
734,0,1.0,1,1.976989507675171,235,1.0,1
735,0,1.0,1,1.7709920406341553,236,1.0,1
736,0,1.0,1,1.2789974212646484,237,1.0,1
737,0,1.0,1,1.6729934215545654,238,0.0,1
738,0,0.0,1,1.5089954137802124,239,0.0,1
739,0,1.0,1,1.9139902591705322,240,1.0,1
740,0,0.0,1,1.2569973468780518,241,0.0,1
741,0,0.0,1,1.3569973707199097,242,0.0,1
742,0,1.0,1,1.5859944820404053,243,1.0,1
743,0,1.0,1,1.5149953365325928,244,1.0,1
744,0,0.0,1,1.5339951515197754,245,0.0,1
745,0,1.0,1,1.4979956150054932,246,1.0,1
746,0,1.0,1,2.028988838195801,247,1.0,1
747,0,1.0,1,1.6349937915802002,248,0.0,1
748,0,1.0,1,1.9939892292022705,249,1.0,1
749,0,1.0,1,1.301997423171997,250,1.0,1
750,0,1.0,1,1.2139972448349,251,0.0,1
751,0,1.0,1,1.6189939975738525,252,0.0,1
752,0,0.0,1,1.9929893016815186,253,0.0,1
753,0,0.0,1,1.597994327545166,254,1.0,1
754,0,0.0,1,1.597994327545166,255,1.0,1
755,0,0.0,1,1.2869974374771118,256,0.0,1
756,0,0.0,1,1.6289939880371094,257,0.0,1
757,0,1.0,1,2.234994411468506,258,1.0,1
758,0,1.0,1,1.6749932765960693,259,1.0,1
759,0,1.0,1,2.056988477706909,260,0.0,1
760,0,1.0,1,1.301997423171997,261,1.0,1
761,0,0.0,1,1.1919972896575928,262,0.0,1
762,0,1.0,1,1.9489898681640625,263,0.0,1
763,0,0.0,1,1.803991675376892,264,0.0,1
764,0,0.0,1,1.6259939670562744,265,0.0,1
765,0,0.0,1,1.2199972867965698,266,1.0,1
766,0,0.0,1,1.696993112564087,267,0.0,1
767,0,1.0,1,1.3749971389770508,268,1.0,1
768,0,1.0,1,1.2869974374771118,269,1.0,1
769,0,1.0,1,1.5109953880310059,270,1.0,1
770,0,1.0,1,1.4079967737197876,271,0.0,1
771,0,0.0,1,1.9389898777008057,272,1.0,1
772,0,1.0,1,1.4519962072372437,273,1.0,1
773,0,0.0,1,1.7259926795959473,274,0.0,1
774,0,1.0,1,1.6609935760498047,275,0.0,1
775,0,0.0,1,1.2019972801208496,276,0.0,1
776,0,0.0,1,1.3589973449707031,277,0.0,1
777,0,1.0,1,1.8209915161132812,278,0.0,1
778,0,0.0,1,2.0299887657165527,279,1.0,1
779,0,0.0,1,1.579994559288025,280,0.0,1
780,0,0.0,1,1.5119954347610474,281,1.0,1
781,0,0.0,1,1.7329926490783691,282,0.0,1
782,0,0.0,1,1.2979974746704102,283,0.0,1
783,0,0.0,1,1.4829957485198975,284,1.0,1
784,0,0.0,1,1.2869974374771118,285,0.0,1
785,0,1.0,1,1.50199556350708,286,1.0,1
786,0,1.0,1,1.5119954347610474,287,0.0,1
787,0,0.0,1,1.2029972076416016,288,0.0,1
788,0,1.0,1,1.579994559288025,289,1.0,1
789,0,1.0,1,1.4179966449737549,290,1.0,1
790,0,0.0,1,1.8419911861419678,291,0.0,1
791,0,0.0,1,1.30399751663208,292,1.0,1
792,0,0.0,1,1.6149940490722656,293,0.0,1
793,0,1.0,1,1.7109928131103516,294,1.0,1
794,0,1.0,1,1.5959943532943726,295,1.0,1
795,0,1.0,1,1.4339964389801025,296,1.0,1
796,0,0.0,1,1.5209952592849731,297,0.0,1
797,0,1.0,1,1.6729934215545654,298,1.0,1
798,0,1.0,1,1.6649935245513916,299,1.0,1
799,0,0.0,1,1.5129953622817993,300,0.0,1
800,0,0.0,1,1.2549973726272583,301,0.0,1
801,0,1.0,1,1.4049967527389526,302,1.0,1
802,0,1.0,1,1.7619922161102295,303,0.0,1
803,0,1.0,1,1.9929893016815186,304,0.0,1
804,0,1.0,1,1.8979904651641846,305,0.0,1
805,0,0.0,1,2.1699914932250977,306,0.0,1
806,0,1.0,1,1.432996392250061,307,1.0,1
807,0,1.0,1,1.6289939880371094,308,1.0,1
808,0,1.0,1,1.3819971084594727,309,1.0,1
809,0,1.0,1,1.432996392250061,310,1.0,1
810,0,1.0,1,1.638993740081787,311,1.0,1
811,0,1.0,1,1.4239965677261353,312,1.0,1
812,0,1.0,1,1.3069974184036255,313,1.0,1
813,0,1.0,1,1.4959956407546997,314,0.0,1
814,0,0.0,1,1.274997353553772,315,0.0,1
815,0,1.0,1,1.5409950017929077,316,1.0,1
816,0,1.0,1,1.310997486114502,317,1.0,1
817,0,1.0,1,1.3319975137710571,318,0.0,1
818,0,1.0,1,1.7729921340942383,319,1.0,1
819,0,1.0,1,1.410996675491333,320,0.0,1
820,0,0.0,1,1.4669959545135498,321,0.0,1
821,0,1.0,1,1.5869944095611572,322,1.0,1
822,0,1.0,1,1.3199975490570068,323,0.0,1
823,0,1.0,1,1.4779958724975586,324,1.0,1
824,0,1.0,1,1.3989968299865723,325,1.0,1
825,0,1.0,1,1.593994379043579,326,1.0,1
826,0,1.0,1,1.5049954652786255,327,1.0,1
827,0,0.0,1,1.30399751663208,328,1.0,1
828,0,1.0,1,1.4239965677261353,329,1.0,1
829,0,1.0,1,1.3989968299865723,330,1.0,1
830,0,1.0,1,1.5449949502944946,331,0.0,1
831,0,0.0,1,1.461996078491211,332,0.0,1
832,0,0.0,1,1.6859931945800781,333,1.0,1
833,0,0.0,1,1.4439963102340698,334,0.0,1
834,0,1.0,1,1.5629947185516357,335,0.0,1
835,0,1.0,1,1.598994255065918,336,1.0,1
836,0,1.0,1,1.5349950790405273,337,1.0,1
837,0,1.0,1,1.598994255065918,338,1.0,1
838,0,1.0,1,2.1169888973236084,339,1.0,1
839,0,1.0,1,1.5619947910308838,340,1.0,1
840,0,1.0,1,2.0959877967834473,341,0.0,1
841,0,0.0,1,1.881990671157837,342,0.0,1
842,0,1.0,1,2.231994152069092,343,1.0,1
843,0,1.0,1,1.7219927310943604,344,1.0,1
844,0,1.0,1,1.5299952030181885,345,1.0,1
845,0,1.0,1,1.5819945335388184,346,1.0,1
846,0,1.0,1,2.3419995307922363,347,1.0,1
847,0,0.0,1,1.26799738407135,348,0.0,1
848,0,1.0,1,2.1529905796051025,349,1.0,1
849,0,1.0,1,1.2839974164962769,350,1.0,1
850,0,1.0,1,2.01098895072937,351,1.0,1
851,0,1.0,1,1.3729971647262573,352,1.0,1
852,0,1.0,1,1.4739959239959717,353,1.0,1
853,0,1.0,1,1.8489911556243896,354,0.0,1
854,0,0.0,1,1.3939969539642334,355,0.0,1
855,0,1.0,1,1.7729921340942383,356,1.0,1
856,0,1.0,1,1.9119902849197388,357,0.0,1
857,0,1.0,1,2.054988384246826,358,1.0,1
858,0,1.0,1,1.304997444152832,359,1.0,1
859,0,1.0,1,1.5009955167770386,360,1.0,1
860,0,0.0,1,1.3489974737167358,361,0.0,1
861,0,1.0,1,1.7799919843673706,362,1.0,1
862,0,1.0,1,1.2879974842071533,363,1.0,1
863,0,1.0,1,1.55399489402771,364,1.0,1
864,0,1.0,1,1.3939969539642334,365,1.0,1
865,0,1.0,1,1.4079967737197876,366,1.0,1
866,0,0.0,1,1.4189965724945068,367,0.0,1
867,0,1.0,1,1.671993374824524,368,1.0,1
868,0,1.0,1,1.4899957180023193,369,1.0,1
869,0,1.0,1,1.9169902801513672,370,0.0,1
870,0,0.0,1,1.246997356414795,371,0.0,1
871,0,1.0,1,1.8239914178848267,372,1.0,1
872,0,1.0,1,1.3549973964691162,373,0.0,1
873,0,0.0,1,1.8099915981292725,374,0.0,1
874,0,0.0,1,1.3739972114562988,375,0.0,1
875,0,1.0,1,1.4199966192245483,376,1.0,1
876,0,1.0,1,1.3979969024658203,377,1.0,1
877,0,1.0,1,1.3509974479675293,378,1.0,1
878,0,1.0,1,1.7089929580688477,379,1.0,1
879,0,1.0,1,1.6179940700531006,380,0.0,1
880,0,0.0,1,1.179997205734253,381,1.0,1
881,0,0.0,1,1.4309964179992676,382,0.0,1
882,0,1.0,1,1.5259952545166016,383,0.0,1
883,0,1.0,1,1.9469897747039795,384,1.0,1
884,0,0.0,1,1.572994589805603,385,0.0,1
885,0,1.0,1,1.3429975509643555,386,1.0,1
886,0,1.0,1,1.4009968042373657,387,0.0,1
887,0,0.0,1,1.554994821548462,388,0.0,1
888,0,1.0,1,1.3829970359802246,389,0.0,1
889,0,0.0,1,1.920990228652954,390,0.0,1
890,0,0.0,1,1.571994662284851,391,0.0,1
891,0,0.0,1,1.298997402191162,392,0.0,1
892,0,1.0,1,1.7479923963546753,393,1.0,1
893,0,1.0,1,2.1329896450042725,394,1.0,1
894,0,1.0,1,1.7269926071166992,395,0.0,1
895,0,0.0,1,2.0789880752563477,396,0.0,1
896,0,1.0,1,1.788991928100586,397,1.0,1
897,0,0.0,1,1.788991928100586,398,0.0,1
898,0,1.0,1,1.4299964904785156,399,1.0,1
899,0,1.0,1,2.1359896659851074,400,0.0,1
900,0,0.0,1,1.175997257232666,401,0.0,1
901,0,1.0,1,1.366997241973877,402,0.0,1
902,0,0.0,1,1.4789958000183105,403,0.0,1
903,0,1.0,1,1.8619909286499023,404,1.0,1
904,0,1.0,1,1.6409938335418701,405,0.0,1
905,0,1.0,1,1.4339964389801025,406,1.0,1
906,0,1.0,1,1.4279965162277222,407,1.0,1
907,0,1.0,1,1.6959930658340454,408,1.0,1
908,0,1.0,1,1.2359973192214966,409,1.0,1
909,0,1.0,1,2.0979881286621094,410,1.0,1
910,0,1.0,1,1.6339938640594482,411,1.0,1
911,0,1.0,1,1.3979969024658203,412,1.0,1
912,0,1.0,1,2.027988910675049,413,1.0,1
913,0,1.0,1,1.3129974603652954,414,0.0,1
914,0,0.0,1,1.3129974603652954,415,0.0,1
915,0,0.0,1,1.313997507095337,416,0.0,1
916,0,0.0,1,2.1339898109436035,417,0.0,1
917,0,0.0,1,1.384997010231018,418,0.0,1
918,0,1.0,1,1.5109953880310059,419,1.0,1
919,0,1.0,1,1.4819958209991455,420,1.0,1
920,0,1.0,1,1.4529961347579956,421,0.0,1
921,0,1.0,1,1.7059929370880127,422,0.0,1
922,0,0.0,1,1.6659934520721436,423,0.0,1
923,0,0.0,1,1.6119941473007202,424,0.0,1
924,0,0.0,1,1.4349963665008545,425,0.0,1
925,0,1.0,1,1.3359975814819336,426,0.0,1
926,0,0.0,1,1.9939892292022705,427,0.0,1
927,0,1.0,1,2.027988910675049,428,0.0,1
928,0,0.0,1,1.1929972171783447,429,0.0,1
929,0,1.0,1,1.6259939670562744,430,1.0,1
930,0,1.0,1,1.7749919891357422,431,0.0,1
931,0,0.0,1,1.2119972705841064,432,0.0,1
932,0,0.0,1,1.2149972915649414,433,1.0,1
933,0,0.0,1,1.8859906196594238,434,1.0,1
934,0,0.0,1,1.9419898986816406,435,1.0,1
935,0,0.0,1,1.3509974479675293,436,0.0,1
936,0,0.0,1,1.3839970827102661,437,0.0,1
937,0,0.0,1,1.3099974393844604,438,0.0,1
938,0,0.0,1,1.8319913148880005,439,0.0,1
939,0,0.0,1,1.5269951820373535,440,1.0,1
940,0,0.0,1,1.874990701675415,441,0.0,1
941,0,0.0,1,1.4669959545135498,442,0.0,1
942,0,1.0,1,1.9629895687103271,443,0.0,1
943,0,0.0,1,1.3229974508285522,444,1.0,1
944,0,0.0,1,1.5219953060150146,445,1.0,1
945,0,0.0,1,1.5569947957992554,446,0.0,1
946,0,1.0,1,1.5669946670532227,447,0.0,1
947,0,1.0,1,1.601994276046753,448,1.0,1
948,0,1.0,1,1.9179902076721191,449,1.0,1
949,0,0.0,1,1.506995439529419,450,0.0,1
950,0,1.0,1,2.1149888038635254,451,1.0,1
951,0,1.0,1,1.6699934005737305,452,1.0,1
952,0,0.0,1,1.8479911088943481,453,0.0,1
953,0,0.0,1,1.851991057395935,454,0.0,1
954,0,1.0,1,1.307997465133667,455,0.0,1
955,0,1.0,1,1.5659947395324707,456,0.0,1
956,0,1.0,1,2.006989002227783,457,0.0,1
957,0,1.0,1,1.3329975605010986,458,0.0,1
958,0,1.0,1,1.39199697971344,459,0.0,1
959,0,1.0,1,1.239997386932373,460,1.0,1
960,0,1.0,1,2.0429885387420654,461,0.0,1
961,0,1.0,1,2.011989116668701,462,1.0,1
962,0,1.0,1,1.874990701675415,463,1.0,1
963,0,1.0,1,1.4599961042404175,464,0.0,1
964,0,1.0,1,1.39199697971344,465,1.0,1
965,0,1.0,1,1.4999955892562866,466,1.0,1
966,0,1.0,1,1.7319926023483276,467,0.0,1
967,0,0.0,1,1.8699908256530762,468,0.0,1
968,0,1.0,1,1.7249927520751953,469,1.0,1
969,0,1.0,1,1.4479962587356567,470,0.0,1
970,0,0.0,1,1.4759958982467651,471,1.0,1
971,0,1.0,1,2.1559906005859375,472,0.0,1
972,0,0.0,1,1.7749919891357422,473,0.0,1
973,0,1.0,1,1.334997534751892,474,1.0,1
974,0,1.0,1,2.2109932899475098,475,1.0,1
975,0,1.0,1,1.8169915676116943,476,0.0,1
976,0,1.0,1,2.025988817214966,477,1.0,1
977,0,1.0,1,1.3789970874786377,478,1.0,1
978,0,1.0,1,1.6799932718276978,479,0.0,1
979,0,0.0,1,1.277997374534607,480,0.0,1
980,0,1.0,1,1.3799971342086792,481,1.0,1
981,0,1.0,1,1.476995825767517,482,1.0,1
982,0,1.0,1,1.3999968767166138,483,1.0,1
983,0,1.0,1,1.740992546081543,484,1.0,1
984,0,1.0,1,1.5899944305419922,485,1.0,1
985,0,1.0,1,1.782991886138916,486,0.0,1
986,0,1.0,1,1.3989968299865723,487,1.0,1
987,0,1.0,1,1.6559935808181763,488,0.0,1
988,0,0.0,1,2.009989023208618,489,0.0,1
989,0,0.0,1,1.3999968767166138,490,0.0,1
990,0,1.0,1,1.527995228767395,491,1.0,1
991,0,1.0,1,1.7249927520751953,492,1.0,1
992,0,1.0,1,1.2619973421096802,493,0.0,1
993,0,0.0,1,1.5959943532943726,494,1.0,1
994,0,0.0,1,2.1849920749664307,495,0.0,1
995,0,1.0,1,1.7959917783737183,496,0.0,1
996,0,1.0,1,1.476995825767517,497,0.0,1
997,0,0.0,1,1.4779958724975586,498,0.0,1
998,0,0.0,1,1.995989203453064,499,0.0,1
999,0,0.0,1,1.1549971103668213,500,0.0,1
1000,0,0.0,2,2.0019891262054443,1,0.0,1
1001,0,0.0,2,1.505995512008667,2,0.0,1
1002,0,1.0,2,1.476995825767517,3,0.0,1
1003,0,0.0,2,1.7739920616149902,4,1.0,1
1004,0,0.0,2,1.4309964179992676,5,0.0,1
1005,0,0.0,2,1.6859931945800781,6,0.0,1
1006,0,1.0,2,1.3729971647262573,7,1.0,1
1007,0,1.0,2,1.7529923915863037,8,1.0,1
1008,0,0.0,2,1.277997374534607,9,0.0,1
1009,0,1.0,2,1.5379951000213623,10,1.0,1
1010,0,1.0,2,1.344997525215149,11,1.0,1
1011,0,1.0,2,1.597994327545166,12,1.0,1
1012,0,0.0,2,1.3359975814819336,13,0.0,1
1013,0,0.0,2,1.8929905891418457,14,0.0,1
1014,0,1.0,2,1.571994662284851,15,0.0,1
1015,0,1.0,2,1.6309938430786133,16,0.0,1
1016,0,0.0,2,1.413996696472168,17,1.0,1
1017,0,0.0,2,1.8679908514022827,18,1.0,1
1018,0,0.0,2,1.7019929885864258,19,1.0,1
1019,0,0.0,2,1.6649935245513916,20,1.0,1
1020,0,0.0,2,2.1739916801452637,21,0.0,1
1021,0,0.0,2,1.9509897232055664,22,1.0,1
1022,0,0.0,2,1.2219972610473633,23,0.0,1
1023,0,0.0,2,1.337997555732727,24,0.0,1
1024,0,0.0,2,1.3729971647262573,25,0.0,1
1025,0,0.0,2,1.27399742603302,26,0.0,1
1026,0,0.0,2,1.1779972314834595,27,1.0,1
1027,0,0.0,2,1.6169941425323486,28,0.0,1
1028,0,0.0,2,1.337997555732727,29,0.0,1
1029,0,0.0,2,1.3459975719451904,30,1.0,1
1030,0,0.0,2,1.6399937868118286,31,0.0,1
1031,0,1.0,2,1.711992859840393,32,0.0,1
1032,0,1.0,2,1.8929905891418457,33,0.0,1
1033,0,0.0,2,1.6959930658340454,34,0.0,1
1034,0,0.0,2,1.5829944610595703,35,1.0,1
1035,0,0.0,2,1.6149940490722656,36,1.0,1
1036,0,0.0,2,1.246997356414795,37,0.0,1
1037,0,1.0,2,1.7439924478530884,38,0.0,1
1038,0,0.0,2,1.3339974880218506,39,1.0,1
1039,0,0.0,2,2.0909879207611084,40,0.0,1
1040,0,0.0,2,1.7169928550720215,41,1.0,1
1041,0,0.0,2,1.277997374534607,42,0.0,1
1042,0,0.0,2,1.7799919843673706,43,1.0,1
1043,0,0.0,2,1.8239914178848267,44,1.0,1
1044,0,0.0,2,1.4349963665008545,45,1.0,1
1045,0,0.0,2,1.3859970569610596,46,1.0,1
1046,0,0.0,2,1.3099974393844604,47,1.0,1
1047,0,0.0,2,1.274997353553772,48,0.0,1
1048,0,0.0,2,1.6659934520721436,49,0.0,1
1049,0,0.0,2,1.3579974174499512,50,1.0,1
1050,0,0.0,2,1.2719974517822266,51,1.0,1
1051,0,0.0,2,1.2239973545074463,52,1.0,1
1052,0,0.0,2,1.6249940395355225,53,0.0,1
1053,0,0.0,2,1.3509974479675293,54,0.0,1
1054,0,0.0,2,1.138997197151184,55,0.0,1
1055,0,1.0,2,1.719992756843567,56,0.0,1
1056,0,0.0,2,1.6099941730499268,57,1.0,1
1057,0,0.0,2,1.55399489402771,58,0.0,1
1058,0,0.0,2,1.9409899711608887,59,1.0,1
1059,0,0.0,2,1.4209965467453003,60,0.0,1
1060,0,1.0,2,1.4219965934753418,61,0.0,1
1061,0,0.0,2,1.4449962377548218,62,0.0,1
1062,0,1.0,2,1.8869905471801758,63,1.0,1
1063,0,1.0,2,1.8149914741516113,64,0.0,1
1064,0,1.0,2,2.007988929748535,65,1.0,1
1065,0,1.0,2,1.5519949197769165,66,0.0,1
1066,0,0.0,2,1.2759974002838135,67,0.0,1
1067,0,0.0,2,1.4879957437515259,68,1.0,1
1068,0,0.0,2,1.182997226715088,69,1.0,1
1069,0,0.0,2,1.2309973239898682,70,0.0,1
1070,0,0.0,2,1.2229973077774048,71,0.0,1
1071,0,1.0,2,1.453996181488037,72,0.0,1
1072,0,0.0,2,1.454996109008789,73,1.0,1
1073,0,0.0,2,1.406996726989746,74,1.0,1
1074,0,0.0,2,1.7139928340911865,75,0.0,1
1075,0,0.0,2,1.3469974994659424,76,0.0,1
1076,0,0.0,2,1.3209974765777588,77,0.0,1
1077,0,0.0,2,1.2429972887039185,78,1.0,1
1078,0,0.0,2,1.7079929113388062,79,1.0,1
1079,0,0.0,2,1.1789971590042114,80,1.0,1
1080,0,0.0,2,1.3539974689483643,81,0.0,1
1081,0,0.0,2,1.2619973421096802,82,1.0,1
1082,0,0.0,2,1.1979972124099731,83,1.0,1
1083,0,0.0,2,1.1789971590042114,84,1.0,1
1084,0,0.0,2,1.8009917736053467,85,0.0,1
1085,0,0.0,2,1.2189972400665283,86,1.0,1
1086,0,0.0,2,1.4529961347579956,87,0.0,1
1087,0,1.0,2,1.7539923191070557,88,1.0,1
1088,0,1.0,2,1.4379963874816895,89,0.0,1
1089,0,1.0,2,1.4049967527389526,90,0.0,1
1090,0,1.0,2,1.3769971132278442,91,1.0,1
1091,0,1.0,2,1.5349950790405273,92,1.0,1
1092,0,1.0,2,1.5479949712753296,93,1.0,1
1093,0,1.0,2,1.57699453830719,94,0.0,1
1094,0,1.0,2,1.826991319656372,95,1.0,1
1095,0,1.0,2,2.059988498687744,96,1.0,1
1096,0,1.0,2,1.6149940490722656,97,1.0,1
1097,0,1.0,2,1.3559974431991577,98,1.0,1
1098,0,1.0,2,1.3529974222183228,99,1.0,1
1099,0,1.0,2,1.71599280834198,100,0.0,1
1100,0,0.0,2,1.3589973449707031,101,1.0,1
1101,0,0.0,2,1.1669971942901611,102,1.0,1
1102,0,0.0,2,2.225994110107422,103,0.0,1
1103,0,1.0,2,1.9069902896881104,104,1.0,1
1104,0,1.0,2,1.527995228767395,105,1.0,1
1105,0,1.0,2,1.9149901866912842,106,1.0,1
1106,0,1.0,2,1.4409962892532349,107,1.0,1
1107,0,1.0,2,1.338997483253479,108,0.0,1
1108,0,0.0,2,1.1839971542358398,109,0.0,1
1109,0,0.0,2,1.8169915676116943,110,0.0,1
1110,0,1.0,2,1.7049930095672607,111,0.0,1
1111,0,1.0,2,2.0969879627227783,112,1.0,1
1112,0,1.0,2,1.8919905424118042,113,1.0,1
1113,0,1.0,2,1.8129916191101074,114,1.0,1
1114,0,1.0,2,1.6119941473007202,115,1.0,1
1115,0,1.0,2,1.3719972372055054,116,0.0,1
1116,0,0.0,2,1.57699453830719,117,0.0,1
1117,0,1.0,2,1.6799932718276978,118,1.0,1
1118,0,1.0,2,1.5269951820373535,119,0.0,1
1119,0,0.0,2,2.255995273590088,120,1.0,1
1120,0,0.0,2,1.2169972658157349,121,0.0,1
1121,0,0.0,2,1.4859957695007324,122,1.0,1
1122,0,0.0,2,1.3189975023269653,123,0.0,1
1123,0,1.0,2,1.3519974946975708,124,0.0,1
1124,0,0.0,2,1.8599909543991089,125,0.0,1
1125,0,0.0,2,1.2659974098205566,126,0.0,1
1126,0,0.0,2,1.5589947700500488,127,1.0,1
1127,0,1.0,2,1.3519974946975708,128,0.0,1
1128,0,0.0,2,1.8499910831451416,129,1.0,1
1129,0,0.0,2,1.3069974184036255,130,1.0,1
1130,0,0.0,2,1.2049973011016846,131,0.0,1
1131,0,1.0,2,2.0329887866973877,132,0.0,1
1132,0,0.0,2,1.3979969024658203,133,1.0,1
1133,0,0.0,2,1.4529961347579956,134,0.0,1
1134,0,0.0,2,1.9599896669387817,135,1.0,1
1135,0,0.0,2,1.2719974517822266,136,1.0,1
1136,0,0.0,2,1.4269964694976807,137,1.0,1
1137,0,0.0,2,1.8699908256530762,138,0.0,1
1138,0,0.0,2,1.509995460510254,139,1.0,1
1139,0,0.0,2,1.5389950275421143,140,0.0,1
1140,0,0.0,2,1.575994610786438,141,0.0,1
1141,0,1.0,2,1.6759933233261108,142,0.0,1
1142,0,0.0,2,1.23799729347229,143,0.0,1
1143,0,1.0,2,1.4429962635040283,144,1.0,1
1144,0,1.0,2,1.2119972705841064,145,1.0,1
1145,0,1.0,2,1.3679972887039185,146,1.0,1
1146,0,0.0,2,1.921990156173706,147,0.0,1
1147,0,1.0,2,1.2759974002838135,148,0.0,1
1148,0,1.0,2,1.3839970827102661,149,1.0,1
1149,0,1.0,2,1.2229973077774048,150,1.0,1
1150,0,1.0,2,2.0319886207580566,151,0.0,1
1151,0,1.0,2,1.6439937353134155,152,0.0,1
1152,0,0.0,2,1.6229939460754395,153,0.0,1
1153,0,0.0,2,1.8459911346435547,154,0.0,1
1154,0,1.0,2,1.5129953622817993,155,1.0,1
1155,0,1.0,2,1.6149940490722656,156,0.0,1
1156,0,1.0,2,1.5689946413040161,157,1.0,1
1157,0,0.0,2,1.7309925556182861,158,1.0,1
1158,0,0.0,2,1.1589971780776978,159,1.0,1
1159,0,0.0,2,1.2909973859786987,160,1.0,1
1160,0,1.0,2,1.3939969539642334,161,1.0,1
1161,0,0.0,2,1.7039929628372192,162,0.0,1
1162,0,1.0,2,1.5659947395324707,163,0.0,1
1163,0,1.0,2,1.924990177154541,164,0.0,1
1164,0,1.0,2,1.413996696472168,165,1.0,1
1165,0,1.0,2,1.9819893836975098,166,1.0,1
1166,0,1.0,2,1.2959973812103271,167,0.0,1
1167,0,0.0,2,1.9429898262023926,168,0.0,1
1168,0,0.0,2,1.8459911346435547,169,1.0,1
1169,0,1.0,2,1.509995460510254,170,0.0,1
1170,0,0.0,2,1.5479949712753296,171,1.0,1
1171,0,1.0,2,2.0419886112213135,172,0.0,1
1172,0,0.0,2,1.7149927616119385,173,0.0,1
1173,0,0.0,2,1.4219965934753418,174,1.0,1
1174,0,0.0,2,1.4179966449737549,175,0.0,1
1175,0,0.0,2,1.9299900531768799,176,0.0,1
1176,0,1.0,2,2.3519997596740723,177,1.0,1
1177,0,1.0,2,1.5869944095611572,178,1.0,1
1178,0,1.0,2,1.4309964179992676,179,1.0,1
1179,0,1.0,2,1.2759974002838135,180,1.0,1
1180,0,1.0,2,1.1949971914291382,181,1.0,1
1181,0,1.0,2,1.2819974422454834,182,1.0,1
1182,0,1.0,2,1.5389950275421143,183,0.0,1
1183,0,1.0,2,2.025988817214966,184,0.0,1
1184,0,0.0,2,1.2429972887039185,185,1.0,1
1185,0,0.0,2,1.361997365951538,186,0.0,1
1186,0,1.0,2,1.5679947137832642,187,1.0,1
1187,0,1.0,2,1.3319975137710571,188,0.0,1
1188,0,1.0,2,1.4669959545135498,189,0.0,1
1189,0,0.0,2,1.3029974699020386,190,0.0,1
1190,0,0.0,2,1.3189975023269653,191,0.0,1
1191,0,0.0,2,1.2549973726272583,192,1.0,1
1192,0,0.0,2,1.9889893531799316,193,0.0,1
1193,0,0.0,2,1.8179914951324463,194,1.0,1
1194,0,0.0,2,1.1959972381591797,195,1.0,1
1195,0,0.0,2,1.170997142791748,196,1.0,1
1196,0,0.0,2,1.2559974193572998,197,0.0,1
1197,0,0.0,2,1.7229926586151123,198,0.0,1
1198,0,1.0,2,1.5189952850341797,199,1.0,1
1199,0,1.0,2,1.3059974908828735,200,1.0,1
1200,0,1.0,2,1.392996907234192,201,0.0,1
1201,0,1.0,2,1.6559935808181763,202,1.0,1
1202,0,1.0,2,1.8409912586212158,203,0.0,1
1203,0,0.0,2,1.2589973211288452,204,0.0,1
1204,0,0.0,2,1.2859973907470703,205,1.0,1
1205,0,0.0,2,1.5709946155548096,206,0.0,1
1206,0,0.0,2,1.623993992805481,207,1.0,1
1207,0,0.0,2,1.2239973545074463,208,0.0,1
1208,0,0.0,2,1.645993709564209,209,0.0,1
1209,0,0.0,2,1.4609960317611694,210,0.0,1
1210,0,0.0,2,1.9819893836975098,211,1.0,1
1211,0,0.0,2,1.3789970874786377,212,1.0,1
1212,0,0.0,2,1.4599961042404175,213,0.0,1
1213,0,0.0,2,1.3169975280761719,214,1.0,1
1214,0,0.0,2,1.502995491027832,215,1.0,1
1215,0,0.0,2,1.6339938640594482,216,1.0,1
1216,0,0.0,2,1.2839974164962769,217,1.0,1
1217,0,0.0,2,1.276997447013855,218,0.0,1
1218,0,1.0,2,1.4019968509674072,219,0.0,1
1219,0,1.0,2,1.7979917526245117,220,1.0,1
1220,0,1.0,2,1.6729934215545654,221,1.0,1
1221,0,1.0,2,2.1379899978637695,222,0.0,1
1222,0,0.0,2,1.24399733543396,223,0.0,1
1223,0,0.0,2,1.9539897441864014,224,1.0,1
1224,0,0.0,2,1.2299972772598267,225,0.0,1
1225,0,1.0,2,1.6279939413070679,226,1.0,1
1226,0,1.0,2,1.832991361618042,227,1.0,1
1227,0,1.0,2,1.3249975442886353,228,0.0,1
1228,0,0.0,2,1.8969905376434326,229,0.0,1
1229,0,1.0,2,1.6559935808181763,230,0.0,1
1230,0,1.0,2,1.8979904651641846,231,1.0,1
1231,0,0.0,2,1.6159940958023071,232,1.0,1
1232,0,0.0,2,1.7579922676086426,233,0.0,1
1233,0,1.0,2,1.5129953622817993,234,0.0,1
1234,0,1.0,2,1.4119967222213745,235,1.0,1
1235,0,1.0,2,1.4819958209991455,236,1.0,1
1236,0,1.0,2,1.7189927101135254,237,0.0,1
1237,0,1.0,2,1.972989559173584,238,0.0,1
1238,0,0.0,2,1.2689974308013916,239,0.0,1
1239,0,0.0,2,1.2829973697662354,240,0.0,1
1240,0,0.0,2,1.7979917526245117,241,1.0,1
1241,0,0.0,2,1.3229974508285522,242,1.0,1
1242,0,1.0,2,1.369997262954712,243,1.0,1
1243,0,0.0,2,1.8189914226531982,244,0.0,1
1244,0,1.0,2,1.4239965677261353,245,0.0,1
1245,0,0.0,2,1.6069941520690918,246,1.0,1
1246,0,0.0,2,1.9579896926879883,247,0.0,1
1247,0,1.0,2,1.310997486114502,248,0.0,1
1248,0,0.0,2,1.8139915466308594,249,1.0,1
1249,0,0.0,2,1.209997296333313,250,0.0,1
1250,0,1.0,2,1.6069941520690918,251,1.0,1
1251,0,1.0,2,1.8049917221069336,252,1.0,1
1252,0,1.0,2,1.575994610786438,253,1.0,1
1253,0,0.0,2,1.2599973678588867,254,1.0,1
1254,0,1.0,2,1.9639896154403687,255,0.0,1
1255,0,0.0,2,1.4079967737197876,256,1.0,1
1256,0,0.0,2,1.2229973077774048,257,0.0,1
1257,0,0.0,2,1.546994924545288,258,1.0,1
1258,0,0.0,2,1.2639973163604736,259,1.0,1
1259,0,0.0,2,1.2509973049163818,260,0.0,1
1260,0,1.0,2,1.9629895687103271,261,0.0,1
1261,0,1.0,2,1.4349963665008545,262,1.0,1
1262,0,1.0,2,1.5589947700500488,263,1.0,1
1263,0,1.0,2,1.2969974279403687,264,1.0,1
1264,0,1.0,2,1.410996675491333,265,1.0,1
1265,0,1.0,2,1.7979917526245117,266,1.0,1
1266,0,1.0,2,1.5129953622817993,267,1.0,1
1267,0,1.0,2,1.6959930658340454,268,1.0,1
1268,0,1.0,2,2.060988426208496,269,0.0,1
1269,0,0.0,2,1.3179974555969238,270,1.0,1
1270,0,0.0,2,1.276997447013855,271,0.0,1
1271,0,1.0,2,1.6739933490753174,272,1.0,1
1272,0,1.0,2,1.480995774269104,273,0.0,1
1273,0,0.0,2,1.6549935340881348,274,0.0,1
1274,0,1.0,2,1.9169902801513672,275,1.0,1
1275,0,1.0,2,1.4059967994689941,276,0.0,1
1276,0,1.0,2,1.8549909591674805,277,0.0,1
1277,0,0.0,2,1.8199914693832397,278,0.0,1
1278,0,0.0,2,1.3169975280761719,279,1.0,1
1279,0,0.0,2,1.4409962892532349,280,0.0,1
1280,0,1.0,2,1.9049904346466064,281,0.0,1
1281,0,0.0,2,1.4459962844848633,282,0.0,1
1282,0,0.0,2,1.2559974193572998,283,0.0,1
1283,0,0.0,2,1.4299964904785156,284,1.0,1
1284,0,1.0,2,1.7529923915863037,285,0.0,1
1285,0,0.0,2,1.1469972133636475,286,0.0,1
1286,0,0.0,2,1.4689959287643433,287,1.0,1
1287,0,0.0,2,1.6209940910339355,288,1.0,1
1288,0,0.0,2,1.2969974279403687,289,0.0,1
1289,0,0.0,2,1.2909973859786987,290,0.0,1
1290,0,1.0,2,1.5919944047927856,291,1.0,1
1291,0,1.0,2,1.688993215560913,292,0.0,1
1292,0,0.0,2,1.432996392250061,293,1.0,1
1293,0,1.0,2,1.4679960012435913,294,0.0,1
1294,0,0.0,2,1.3429975509643555,295,0.0,1
1295,0,0.0,2,1.878990650177002,296,1.0,1
1296,0,0.0,2,1.3129974603652954,297,1.0,1
1297,0,0.0,2,2.28399658203125,298,0.0,1
1298,0,0.0,2,1.5429949760437012,299,0.0,1
1299,0,0.0,2,1.8199914693832397,300,0.0,1
1300,0,0.0,2,1.5139954090118408,301,0.0,1
1301,0,0.0,2,1.4919956922531128,302,1.0,1
1302,0,0.0,2,1.3599973917007446,303,0.0,1
1303,0,1.0,2,1.9969892501831055,304,1.0,1
1304,0,1.0,2,1.7629921436309814,305,1.0,1
1305,0,1.0,2,1.8799906969070435,306,0.0,1
1306,0,1.0,2,1.4409962892532349,307,0.0,1
1307,0,0.0,2,1.8319913148880005,308,1.0,1
1308,0,0.0,2,1.3299975395202637,309,0.0,1
1309,0,1.0,2,1.6779932975769043,310,1.0,1
1310,0,0.0,2,1.7839919328689575,311,0.0,1
1311,0,1.0,2,1.9599896669387817,312,0.0,1
1312,0,1.0,2,1.7629921436309814,313,0.0,1
1313,0,0.0,2,1.604994297027588,314,1.0,1
1314,0,0.0,2,1.3459975719451904,315,1.0,1
1315,0,0.0,2,1.4879957437515259,316,0.0,1
1316,0,0.0,2,1.688993215560913,317,0.0,1
1317,0,1.0,2,1.8729908466339111,318,1.0,1
1318,0,0.0,2,1.3529974222183228,319,0.0,1
1319,0,1.0,2,1.384997010231018,320,0.0,1
1320,0,1.0,2,1.7239927053451538,321,1.0,1
1321,0,0.0,2,1.832991361618042,322,1.0,1
1322,0,1.0,2,1.1929972171783447,323,1.0,1
1323,0,1.0,2,1.5379951000213623,324,1.0,1
1324,0,0.0,2,1.6669933795928955,325,0.0,1
1325,0,1.0,2,1.7619922161102295,326,1.0,1
1326,0,1.0,2,1.3909969329833984,327,1.0,1
1327,0,1.0,2,1.457996129989624,328,1.0,1
1328,0,0.0,2,1.5219953060150146,329,0.0,1
1329,0,1.0,2,1.2539973258972168,330,0.0,1
1330,0,1.0,2,1.5159953832626343,331,1.0,1
1331,0,1.0,2,1.2619973421096802,332,1.0,1
1332,0,1.0,2,1.2329972982406616,333,0.0,1
1333,0,0.0,2,1.2419973611831665,334,1.0,1
1334,0,0.0,2,1.3909969329833984,335,0.0,1
1335,0,0.0,2,2.028988838195801,336,0.0,1
1336,0,1.0,2,1.3009974956512451,337,1.0,1
1337,0,1.0,2,1.3719972372055054,338,0.0,1
1338,0,1.0,2,1.7399924993515015,339,1.0,1
1339,0,1.0,2,1.851991057395935,340,0.0,1
1340,0,1.0,2,1.239997386932373,341,0.0,1
1341,0,0.0,2,1.6589934825897217,342,0.0,1
1342,0,1.0,2,1.413996696472168,343,1.0,1
1343,0,1.0,2,1.7739920616149902,344,0.0,1
1344,0,1.0,2,2.0019891262054443,345,0.0,1
1345,0,0.0,2,1.7089929580688477,346,1.0,1
1346,0,0.0,2,1.3459975719451904,347,1.0,1
1347,0,0.0,2,1.340997576713562,348,1.0,1
1348,0,0.0,2,1.9369900226593018,349,0.0,1
1349,0,0.0,2,1.57699453830719,350,0.0,1
1350,0,0.0,2,2.028988838195801,351,1.0,1
1351,0,1.0,2,1.9589896202087402,352,1.0,1
1352,0,0.0,2,1.6989929676055908,353,1.0,1
1353,0,0.0,2,1.304997444152832,354,0.0,1
1354,0,1.0,2,1.969989538192749,355,0.0,1
1355,0,0.0,2,1.4049967527389526,356,0.0,1
1356,0,1.0,2,1.9319900274276733,357,0.0,1
1357,0,0.0,2,1.310997486114502,358,0.0,1
1358,0,0.0,2,1.6359938383102417,359,0.0,1
1359,0,0.0,2,1.277997374534607,360,1.0,1
1360,0,0.0,2,1.3759971857070923,361,0.0,1
1361,0,0.0,2,1.7909917831420898,362,0.0,1
1362,0,0.0,2,1.3329975605010986,363,1.0,1
1363,0,0.0,2,1.431996464729309,364,0.0,1
1364,0,1.0,2,1.2929974794387817,365,0.0,1
1365,0,0.0,2,1.4959956407546997,366,1.0,1
1366,0,0.0,2,1.2969974279403687,367,0.0,1
1367,0,0.0,2,1.7589921951293945,368,1.0,1
1368,0,0.0,2,1.71599280834198,369,1.0,1
1369,0,0.0,2,1.6399937868118286,370,0.0,1
1370,0,0.0,2,1.7759920358657837,371,0.0,1
1371,0,1.0,2,1.903990387916565,372,0.0,1
1372,0,0.0,2,1.6359938383102417,373,0.0,1
1373,0,1.0,2,1.3799971342086792,374,0.0,1
1374,0,0.0,2,1.2599973678588867,375,1.0,1
1375,0,0.0,2,1.4779958724975586,376,1.0,1
1376,0,0.0,2,1.3009974956512451,377,0.0,1
1377,0,1.0,2,1.4019968509674072,378,1.0,1
1378,0,1.0,2,1.2689974308013916,379,1.0,1
1379,0,1.0,2,1.2939974069595337,380,1.0,1
1380,0,1.0,2,1.4049967527389526,381,1.0,1
1381,0,1.0,2,1.2579973936080933,382,0.0,1
1382,0,0.0,2,2.225994110107422,383,0.0,1
1383,0,0.0,2,1.432996392250061,384,0.0,1
1384,0,0.0,2,2.239994525909424,385,0.0,1
1385,0,1.0,2,2.0529885292053223,386,0.0,1
1386,0,0.0,2,1.5639947652816772,387,1.0,1
1387,0,0.0,2,1.3779971599578857,388,1.0,1
1388,0,0.0,2,1.4219965934753418,389,1.0,1
1389,0,0.0,2,1.2549973726272583,390,1.0,1
1390,0,0.0,2,1.3099974393844604,391,0.0,1
1391,0,1.0,2,1.7009930610656738,392,0.0,1
1392,0,1.0,2,1.4429962635040283,393,1.0,1
1393,0,1.0,2,1.2159972190856934,394,1.0,1
1394,0,1.0,2,1.594994306564331,395,1.0,1
1395,0,0.0,2,2.312998056411743,396,1.0,1
1396,0,0.0,2,1.4669959545135498,397,0.0,1
1397,0,1.0,2,2.0369887351989746,398,1.0,1
1398,0,1.0,2,1.785991907119751,399,0.0,1
1399,0,1.0,2,1.8239914178848267,400,0.0,1
1400,0,1.0,2,2.013988971710205,401,0.0,1
1401,0,0.0,2,1.457996129989624,402,0.0,1
1402,0,0.0,2,1.5009955167770386,403,1.0,1
1403,0,0.0,2,1.1859972476959229,404,1.0,1
1404,0,0.0,2,1.5259952545166016,405,1.0,1
1405,0,0.0,2,1.2839974164962769,406,1.0,1
1406,0,0.0,2,1.5359951257705688,407,0.0,1
1407,0,0.0,2,1.4519962072372437,408,0.0,1
1408,0,0.0,2,1.4919956922531128,409,1.0,1
1409,0,0.0,2,1.3589973449707031,410,0.0,1
1410,0,0.0,2,1.23799729347229,411,1.0,1
1411,0,0.0,2,1.3689972162246704,412,0.0,1
1412,0,0.0,2,1.6209940910339355,413,1.0,1
1413,0,0.0,2,1.3319975137710571,414,0.0,1
1414,0,1.0,2,1.785991907119751,415,1.0,1
1415,0,1.0,2,1.763992190361023,416,0.0,1
1416,0,0.0,2,1.5079954862594604,417,0.0,1
1417,0,0.0,2,1.9999891519546509,418,0.0,1
1418,0,0.0,2,1.4119967222213745,419,0.0,1
1419,0,1.0,2,2.1509904861450195,420,1.0,1
1420,0,1.0,2,1.554994821548462,421,0.0,1
1421,0,0.0,2,1.4469962120056152,422,1.0,1
1422,0,1.0,2,1.9409899711608887,423,1.0,1
1423,0,0.0,2,1.9859893321990967,424,1.0,1
1424,0,1.0,2,2.291996955871582,425,0.0,1
1425,0,0.0,2,1.4479962587356567,426,1.0,1
1426,0,0.0,2,1.453996181488037,427,1.0,1
1427,0,0.0,2,1.384997010231018,428,0.0,1
1428,0,1.0,2,1.5139954090118408,429,1.0,1
1429,0,1.0,2,1.431996464729309,430,1.0,1
1430,0,1.0,2,1.3719972372055054,431,1.0,1
1431,0,0.0,2,1.3369975090026855,432,0.0,1
1432,0,1.0,2,1.5739946365356445,433,1.0,1
1433,0,1.0,2,1.3999968767166138,434,0.0,1
1434,0,0.0,2,1.505995512008667,435,1.0,1
1435,0,0.0,2,1.5389950275421143,436,1.0,1
1436,0,0.0,2,1.4449962377548218,437,0.0,1
1437,0,0.0,2,1.1619971990585327,438,0.0,1
1438,0,0.0,2,1.4159966707229614,439,1.0,1
1439,0,1.0,2,2.6260128021240234,440,1.0,1
1440,0,0.0,2,1.458996057510376,441,1.0,1
1441,0,1.0,2,1.9159902334213257,442,0.0,1
1442,0,0.0,2,1.3329975605010986,443,1.0,1
1443,0,0.0,2,1.3519974946975708,444,1.0,1
1444,0,0.0,2,1.2169972658157349,445,0.0,1
1445,0,1.0,2,2.251995086669922,446,0.0,1
1446,0,0.0,2,1.642993688583374,447,0.0,1
1447,0,1.0,2,1.4659960269927979,448,0.0,1
1448,0,0.0,2,1.7629921436309814,449,0.0,1
1449,0,1.0,2,1.8069915771484375,450,1.0,1
1450,0,1.0,2,1.4789958000183105,451,0.0,1
1451,0,0.0,2,1.2719974517822266,452,1.0,1
1452,0,1.0,2,1.4119967222213745,453,0.0,1
1453,0,0.0,2,1.270997405052185,454,1.0,1
1454,0,0.0,2,1.8949904441833496,455,0.0,1
1455,0,0.0,2,2.4170029163360596,456,1.0,1
1456,0,0.0,2,1.3469974994659424,457,1.0,1
1457,0,0.0,2,1.7749919891357422,458,1.0,1
1458,0,0.0,2,2.326998710632324,459,1.0,1
1459,0,0.0,2,1.387997031211853,460,1.0,1
1460,0,0.0,2,1.4869956970214844,461,0.0,1
1461,0,0.0,2,1.811991572380066,462,0.0,1
1462,0,0.0,2,1.4759958982467651,463,0.0,1
1463,0,0.0,2,1.3899970054626465,464,0.0,1
1464,0,1.0,2,2.0949878692626953,465,1.0,1
1465,0,1.0,2,2.1569907665252686,466,0.0,1
1466,0,1.0,2,1.41499662399292,467,1.0,1
1467,0,1.0,2,1.7529923915863037,468,0.0,1
1468,0,0.0,2,1.3479975461959839,469,1.0,1
1469,0,0.0,2,1.2729973793029785,470,0.0,1
1470,0,0.0,2,1.276997447013855,471,1.0,1
1471,0,0.0,2,1.1899971961975098,472,1.0,1
1472,0,0.0,2,1.388996958732605,473,0.0,1
1473,0,1.0,2,1.4429962635040283,474,1.0,1
1474,0,1.0,2,1.3779971599578857,475,1.0,1
1475,0,0.0,2,1.3719972372055054,476,1.0,1
1476,0,1.0,2,1.2719974517822266,477,0.0,1
1477,0,0.0,2,2.0439887046813965,478,1.0,1
1478,0,0.0,2,1.2639973163604736,479,0.0,1
1479,0,1.0,2,1.4039968252182007,480,0.0,1
1480,0,1.0,2,1.995989203453064,481,0.0,1
1481,0,0.0,2,1.5199953317642212,482,1.0,1
1482,0,1.0,2,1.9309899806976318,483,1.0,1
1483,0,0.0,2,1.7039929628372192,484,0.0,1
1484,0,1.0,2,1.5389950275421143,485,1.0,1
1485,0,1.0,2,1.5919944047927856,486,1.0,1
1486,0,1.0,2,1.6249940395355225,487,1.0,1
1487,0,1.0,2,1.5489948987960815,488,0.0,1
1488,0,1.0,2,1.619994044303894,489,0.0,1
1489,0,0.0,2,1.2389973402023315,490,1.0,1
1490,0,0.0,2,2.1079883575439453,491,0.0,1
1491,0,0.0,2,1.648993730545044,492,1.0,1
1492,0,0.0,2,1.361997365951538,493,0.0,1
1493,0,0.0,2,1.6759933233261108,494,1.0,1
1494,0,0.0,2,1.1949971914291382,495,1.0,1
1495,0,0.0,2,1.5179953575134277,496,1.0,1
1496,0,0.0,2,1.5149953365325928,497,0.0,1
1497,0,1.0,2,1.5129953622817993,498,1.0,1
1498,0,1.0,2,1.334997534751892,499,1.0,1
1499,0,1.0,2,1.645993709564209,500,1.0,1
1500,1,0.0,0,1.8982343673706055,1,0.0,1
1501,1,1.0,0,1.340241551399231,2,1.0,1
1502,1,1.0,0,1.433240294456482,3,0.0,1
1503,1,1.0,0,1.4392402172088623,4,1.0,1
1504,1,1.0,0,1.1402413845062256,5,1.0,1
1505,1,1.0,0,1.2712416648864746,6,1.0,1
1506,1,0.0,0,1.1672414541244507,7,0.0,1
1507,1,1.0,0,1.8112354278564453,8,0.0,1
1508,1,0.0,0,1.2742416858673096,9,0.0,1
1509,1,1.0,0,1.4882396459579468,10,1.0,1
1510,1,1.0,0,1.4682399034500122,11,1.0,1
1511,1,1.0,0,1.502239465713501,12,1.0,1
1512,1,1.0,0,1.642237663269043,13,0.0,1
1513,1,0.0,0,2.113234281539917,14,0.0,1
1514,1,1.0,0,1.4432401657104492,15,1.0,1
1515,1,1.0,0,1.7032368183135986,16,1.0,1
1516,1,1.0,0,1.4052406549453735,17,1.0,1
1517,1,1.0,0,1.5072393417358398,18,1.0,1
1518,1,1.0,0,1.6172380447387695,19,1.0,1
1519,1,1.0,0,1.4342403411865234,20,1.0,1
1520,1,1.0,0,1.3942408561706543,21,0.0,1
1521,1,1.0,0,2.164236545562744,22,1.0,1
1522,1,1.0,0,1.4052406549453735,23,1.0,1
1523,1,1.0,0,1.5452388525009155,24,1.0,1
1524,1,1.0,0,1.3982408046722412,25,1.0,1
1525,1,1.0,0,1.481239676475525,26,1.0,1
1526,1,1.0,0,2.0432324409484863,27,1.0,1
1527,1,1.0,0,1.306241750717163,28,1.0,1
1528,1,1.0,0,1.3432414531707764,29,1.0,1
1529,1,1.0,0,1.56523859500885,30,1.0,1
1530,1,1.0,0,1.3312416076660156,31,1.0,1
1531,1,1.0,0,2.1702370643615723,32,1.0,1
1532,1,1.0,0,1.4312403202056885,33,1.0,1
1533,1,1.0,0,1.3832409381866455,34,1.0,1
1534,1,1.0,0,1.5142393112182617,35,1.0,1
1535,1,1.0,0,1.3192417621612549,36,1.0,1
1536,1,1.0,0,1.2302416563034058,37,1.0,1
1537,1,1.0,0,1.3832409381866455,38,1.0,1
1538,1,1.0,0,1.5892384052276611,39,1.0,1
1539,1,1.0,0,1.637237787246704,40,0.0,1
1540,1,0.0,0,2.144235610961914,41,0.0,1
1541,1,1.0,0,2.2242393493652344,42,1.0,1
1542,1,1.0,0,1.5992381572723389,43,1.0,1
1543,1,0.0,0,1.2292416095733643,44,0.0,1
1544,1,1.0,0,1.2952417135238647,45,1.0,1
1545,1,1.0,0,1.4212404489517212,46,1.0,1
1546,1,1.0,0,1.668237328529358,47,1.0,1
1547,1,1.0,0,1.4872395992279053,48,0.0,1
1548,1,1.0,0,1.6792371273040771,49,1.0,1
1549,1,1.0,0,1.450240135192871,50,1.0,1
1550,1,1.0,0,1.3912408351898193,51,0.0,1
1551,1,1.0,0,1.4832396507263184,52,1.0,1
1552,1,1.0,0,1.5742385387420654,53,1.0,1
1553,1,1.0,0,1.6292378902435303,54,1.0,1
1554,1,1.0,0,1.3892408609390259,55,0.0,1
1555,1,1.0,0,1.5012394189834595,56,1.0,1
1556,1,1.0,0,1.6142380237579346,57,1.0,1
1557,1,1.0,0,1.4862396717071533,58,1.0,1
1558,1,1.0,0,1.411240577697754,59,0.0,1
1559,1,0.0,0,1.546238899230957,60,1.0,1
1560,1,0.0,0,1.2702417373657227,61,0.0,1
1561,1,1.0,0,2.165236711502075,62,1.0,1
1562,1,1.0,0,1.499239444732666,63,1.0,1
1563,1,1.0,0,1.336241602897644,64,0.0,1
1564,1,1.0,0,1.8362351655960083,65,0.0,1
1565,1,0.0,0,1.5402389764785767,66,0.0,1
1566,1,1.0,0,1.2962417602539062,67,0.0,1
1567,1,0.0,0,1.4302403926849365,68,0.0,1
1568,1,0.0,0,1.8882344961166382,69,1.0,1
1569,1,0.0,0,2.061232328414917,70,0.0,1
1570,1,0.0,0,1.782235860824585,71,0.0,1
1571,1,1.0,0,1.6312377452850342,72,1.0,1
1572,1,1.0,0,1.5332390069961548,73,1.0,1
1573,1,1.0,0,1.4452401399612427,74,1.0,1
1574,1,1.0,0,1.425240397453308,75,1.0,1
1575,1,1.0,0,1.3382415771484375,76,1.0,1
1576,1,1.0,0,1.8572349548339844,77,1.0,1
1577,1,0.0,0,1.1642415523529053,78,0.0,1
1578,1,1.0,0,1.2312415838241577,79,1.0,1
1579,1,1.0,0,1.278241753578186,80,1.0,1
1580,1,1.0,0,1.6582374572753906,81,1.0,1
1581,1,1.0,0,1.385240912437439,82,1.0,1
1582,1,1.0,0,1.5852384567260742,83,1.0,1
1583,1,1.0,0,1.3562413454055786,84,1.0,1
1584,1,0.0,0,1.5402389764785767,85,0.0,1
1585,1,1.0,0,1.7682360410690308,86,0.0,1
1586,1,0.0,0,1.4472401142120361,87,0.0,1
1587,1,0.0,0,1.6012382507324219,88,0.0,1
1588,1,1.0,0,1.4612399339675903,89,1.0,1
1589,1,1.0,0,1.4342403411865234,90,1.0,1
1590,1,1.0,0,1.5712385177612305,91,0.0,1
1591,1,1.0,0,2.104233741760254,92,1.0,1
1592,1,1.0,0,1.3702411651611328,93,1.0,1
1593,1,1.0,0,1.7652361392974854,94,1.0,1
1594,1,1.0,0,1.503239393234253,95,1.0,1
1595,1,1.0,0,1.2902417182922363,96,1.0,1
1596,1,1.0,0,1.4202405214309692,97,1.0,1
1597,1,1.0,0,1.2982417345046997,98,1.0,1
1598,1,1.0,0,1.871234655380249,99,1.0,1
1599,1,1.0,0,1.498239517211914,100,1.0,1
1600,1,1.0,0,1.7992355823516846,101,1.0,1
1601,1,1.0,0,1.4192404747009277,102,1.0,1
1602,1,1.0,0,1.5732386112213135,103,1.0,1
1603,1,1.0,0,1.2192416191101074,104,1.0,1
1604,1,1.0,0,1.3672411441802979,105,1.0,1
1605,1,1.0,0,1.4192404747009277,106,1.0,1
1606,1,1.0,0,1.2982417345046997,107,1.0,1
1607,1,1.0,0,1.2932417392730713,108,1.0,1
1608,1,1.0,0,1.359241247177124,109,1.0,1
1609,1,1.0,0,1.458240032196045,110,1.0,1
1610,1,1.0,0,1.2972418069839478,111,1.0,1
1611,1,1.0,0,1.312241792678833,112,0.0,1
1612,1,0.0,0,1.3202418088912964,113,0.0,1
1613,1,0.0,0,1.3312416076660156,114,1.0,1
1614,1,0.0,0,1.2552416324615479,115,1.0,1
1615,1,0.0,0,1.214241623878479,116,0.0,1
1616,1,1.0,0,1.4092406034469604,117,1.0,1
1617,1,1.0,0,1.6332378387451172,118,1.0,1
1618,1,1.0,0,1.9572336673736572,119,1.0,1
1619,1,1.0,0,1.6102380752563477,120,0.0,1
1620,1,1.0,0,1.214241623878479,121,1.0,1
1621,1,0.0,0,1.473239779472351,122,0.0,1
1622,1,1.0,0,1.5732386112213135,123,1.0,1
1623,1,1.0,0,1.3602412939071655,124,1.0,1
1624,1,1.0,0,1.5492388010025024,125,1.0,1
1625,1,1.0,0,1.528239130973816,126,1.0,1
1626,1,1.0,0,1.312241792678833,127,0.0,1
1627,1,1.0,0,1.336241602897644,128,1.0,1
1628,1,1.0,0,1.2612416744232178,129,1.0,1
1629,1,1.0,0,1.8632347583770752,130,1.0,1
1630,1,1.0,0,2.12223482131958,131,1.0,1
1631,1,1.0,0,1.8122354745864868,132,1.0,1
1632,1,1.0,0,1.306241750717163,133,1.0,1
1633,1,1.0,0,1.5612386465072632,134,1.0,1
1634,1,1.0,0,1.2472416162490845,135,1.0,1
1635,1,1.0,0,1.5132392644882202,136,1.0,1
1636,1,1.0,0,1.502239465713501,137,1.0,1
1637,1,1.0,0,1.4532400369644165,138,1.0,1
1638,1,1.0,0,1.4242404699325562,139,1.0,1
1639,1,1.0,0,1.6792371273040771,140,1.0,1
1640,1,1.0,0,1.7892358303070068,141,1.0,1
1641,1,1.0,0,1.5142393112182617,142,1.0,1
1642,1,1.0,0,1.5002394914627075,143,1.0,1
1643,1,1.0,0,1.4642399549484253,144,1.0,1
1644,1,1.0,0,1.481239676475525,145,1.0,1
1645,1,1.0,0,1.2562416791915894,146,1.0,1
1646,1,1.0,0,1.638237714767456,147,1.0,1
1647,1,1.0,0,1.4532400369644165,148,1.0,1
1648,1,1.0,0,1.664237380027771,149,1.0,1
1649,1,1.0,0,1.4202405214309692,150,0.0,1
1650,1,1.0,0,2.085232973098755,151,1.0,1
1651,1,1.0,0,1.4412401914596558,152,1.0,1
1652,1,1.0,0,1.3132418394088745,153,1.0,1
1653,1,1.0,0,1.6582374572753906,154,0.0,1
1654,1,0.0,0,1.5812385082244873,155,0.0,1
1655,1,0.0,0,2.2152390480041504,156,0.0,1
1656,1,1.0,0,1.734236478805542,157,1.0,1
1657,1,1.0,0,1.7452363967895508,158,1.0,1
1658,1,1.0,0,1.5402389764785767,159,1.0,1
1659,1,1.0,0,2.067232131958008,160,0.0,1
1660,1,1.0,0,1.568238615989685,161,1.0,1
1661,1,1.0,0,1.2962417602539062,162,1.0,1
1662,1,1.0,0,1.4692398309707642,163,1.0,1
1663,1,0.0,0,1.8442350625991821,164,0.0,1
1664,1,1.0,0,1.3652411699295044,165,0.0,1
1665,1,1.0,0,1.6342377662658691,166,1.0,1
1666,1,1.0,0,1.4262404441833496,167,1.0,1
1667,1,1.0,0,1.760236144065857,168,1.0,1
1668,1,1.0,0,1.359241247177124,169,1.0,1
1669,1,1.0,0,1.5602387189865112,170,1.0,1
1670,1,1.0,0,1.5572386980056763,171,1.0,1
1671,1,1.0,0,1.3472414016723633,172,1.0,1
1672,1,0.0,0,1.429240345954895,173,0.0,1
1673,1,1.0,0,1.4312403202056885,174,1.0,1
1674,1,1.0,0,1.2652417421340942,175,1.0,1
1675,1,1.0,0,1.3892408609390259,176,1.0,1
1676,1,1.0,0,1.781235933303833,177,1.0,1
1677,1,1.0,0,2.0492324829101562,178,1.0,1
1678,1,1.0,0,1.3002417087554932,179,1.0,1
1679,1,1.0,0,1.3962408304214478,180,1.0,1
1680,1,1.0,0,1.6122380495071411,181,1.0,1
1681,1,1.0,0,1.450240135192871,182,1.0,1
1682,1,1.0,0,1.5702385902404785,183,1.0,1
1683,1,1.0,0,1.2102415561676025,184,1.0,1
1684,1,0.0,0,1.406240701675415,185,0.0,1
1685,1,0.0,0,1.2402416467666626,186,0.0,1
1686,1,1.0,0,1.388240933418274,187,1.0,1
1687,1,1.0,0,1.245241641998291,188,1.0,1
1688,1,1.0,0,1.3322416543960571,189,0.0,1
1689,1,0.0,0,1.5702385902404785,190,0.0,1
1690,1,1.0,0,2.2242393493652344,191,1.0,1
1691,1,1.0,0,1.7662360668182373,192,0.0,1
1692,1,0.0,0,2.387247085571289,193,0.0,1
1693,1,1.0,0,1.4422402381896973,194,1.0,1
1694,1,1.0,0,1.9322339296340942,195,1.0,1
1695,1,1.0,0,1.3232417106628418,196,1.0,1
1696,1,1.0,0,1.642237663269043,197,1.0,1
1697,1,1.0,0,1.5352389812469482,198,1.0,1
1698,1,1.0,0,1.3252416849136353,199,1.0,1
1699,1,1.0,0,1.2372416257858276,200,1.0,1
1700,1,1.0,0,1.337241530418396,201,1.0,1
1701,1,1.0,0,1.3442414999008179,202,1.0,1
1702,1,1.0,0,1.4742398262023926,203,1.0,1
1703,1,1.0,0,1.3262417316436768,204,0.0,1
1704,1,0.0,0,1.4042407274246216,205,0.0,1
1705,1,0.0,0,1.775235891342163,206,0.0,1
1706,1,1.0,0,1.752236247062683,207,1.0,1
1707,1,1.0,0,1.4152405261993408,208,1.0,1
1708,1,1.0,0,1.1632415056228638,209,0.0,1
1709,1,1.0,0,1.5642386674880981,210,0.0,1
1710,1,0.0,0,1.184241533279419,211,0.0,1
1711,1,0.0,0,1.8372352123260498,212,0.0,1
1712,1,0.0,0,2.015232801437378,213,0.0,1
1713,1,0.0,0,1.3652411699295044,214,1.0,1
1714,1,0.0,0,1.2562416791915894,215,0.0,1
1715,1,1.0,0,1.7622361183166504,216,1.0,1
1716,1,0.0,0,2.2692415714263916,217,0.0,1
1717,1,0.0,0,1.410240650177002,218,0.0,1
1718,1,1.0,0,1.3382415771484375,219,1.0,1
1719,1,1.0,0,1.275241732597351,220,1.0,1
1720,1,1.0,0,1.639237642288208,221,1.0,1
1721,1,1.0,0,1.5872383117675781,222,0.0,1
1722,1,1.0,0,1.4612399339675903,223,1.0,1
1723,1,1.0,0,1.738236427307129,224,0.0,1
1724,1,0.0,0,1.5532387495040894,225,0.0,1
1725,1,0.0,0,1.428240418434143,226,0.0,1
1726,1,0.0,0,1.306241750717163,227,0.0,1
1727,1,0.0,0,1.2022415399551392,228,0.0,1
1728,1,1.0,0,1.3762410879135132,229,1.0,1
1729,1,1.0,0,1.2762417793273926,230,1.0,1
1730,1,1.0,0,1.306241750717163,231,1.0,1
1731,1,1.0,0,1.8542349338531494,232,1.0,1
1732,1,1.0,0,1.2622417211532593,233,1.0,1
1733,1,1.0,0,1.7112367153167725,234,0.0,1
1734,1,0.0,0,1.3392415046691895,235,0.0,1
1735,1,1.0,0,2.1942381858825684,236,0.0,1
1736,1,0.0,0,1.922234058380127,237,0.0,1
1737,1,0.0,0,1.8862345218658447,238,1.0,1
1738,1,0.0,0,1.6612374782562256,239,1.0,1
1739,1,0.0,0,1.4932395219802856,240,0.0,1
1740,1,1.0,0,1.3962408304214478,241,1.0,1
1741,1,1.0,0,1.3702411651611328,242,1.0,1
1742,1,1.0,0,1.5012394189834595,243,1.0,1
1743,1,1.0,0,1.312241792678833,244,0.0,1
1744,1,0.0,0,1.436240315437317,245,0.0,1
1745,1,1.0,0,1.8592348098754883,246,1.0,1
1746,1,1.0,0,1.4012407064437866,247,0.0,1
1747,1,1.0,0,1.8532350063323975,248,1.0,1
1748,1,1.0,0,1.4202405214309692,249,1.0,1
1749,1,1.0,0,1.499239444732666,250,1.0,1
1750,1,1.0,0,1.4792397022247314,251,1.0,1
1751,1,1.0,0,1.1642415523529053,252,1.0,1
1752,1,1.0,0,1.7882357835769653,253,1.0,1
1753,1,1.0,0,1.8382351398468018,254,1.0,1
1754,1,1.0,0,1.385240912437439,255,1.0,1
1755,1,1.0,0,1.9092342853546143,256,0.0,1
1756,1,0.0,0,1.4312403202056885,257,0.0,1
1757,1,1.0,0,1.2802417278289795,258,1.0,1
1758,1,1.0,0,1.7032368183135986,259,1.0,1
1759,1,1.0,0,1.8132355213165283,260,1.0,1
1760,1,1.0,0,1.4592399597167969,261,1.0,1
1761,1,1.0,0,1.473239779472351,262,1.0,1
1762,1,1.0,0,1.639237642288208,263,1.0,1
1763,1,1.0,0,1.9022343158721924,264,1.0,1
1764,1,1.0,0,1.3502414226531982,265,1.0,1
1765,1,1.0,0,1.3132418394088745,266,1.0,1
1766,1,1.0,0,1.2902417182922363,267,0.0,1
1767,1,1.0,0,1.6362377405166626,268,1.0,1
1768,1,1.0,0,1.5822384357452393,269,1.0,1
1769,1,1.0,0,1.3502414226531982,270,1.0,1
1770,1,1.0,0,1.4522401094436646,271,1.0,1
1771,1,1.0,0,1.2332416772842407,272,1.0,1
1772,1,1.0,0,1.4342403411865234,273,1.0,1
1773,1,1.0,0,1.2572417259216309,274,1.0,1
1774,1,1.0,0,1.2472416162490845,275,0.0,1
1775,1,1.0,0,1.6062381267547607,276,1.0,1
1776,1,1.0,0,1.4782397747039795,277,1.0,1
1777,1,1.0,0,1.4742398262023926,278,1.0,1
1778,1,1.0,0,1.8432350158691406,279,1.0,1
1779,1,1.0,0,1.4122406244277954,280,1.0,1
1780,1,1.0,0,1.4182405471801758,281,1.0,1
1781,1,1.0,0,1.355241298675537,282,1.0,1
1782,1,1.0,0,1.528239130973816,283,1.0,1
1783,1,1.0,0,1.248241662979126,284,0.0,1
1784,1,0.0,0,1.660237431526184,285,0.0,1
1785,1,0.0,0,1.3002417087554932,286,0.0,1
1786,1,0.0,0,1.642237663269043,287,1.0,1
1787,1,0.0,0,2.4372494220733643,288,0.0,1
1788,1,0.0,0,1.8912343978881836,289,0.0,1
1789,1,0.0,0,1.9462337493896484,290,0.0,1
1790,1,1.0,0,1.5262391567230225,291,1.0,1
1791,1,1.0,0,1.638237714767456,292,1.0,1
1792,1,1.0,0,2.0012331008911133,293,1.0,1
1793,1,1.0,0,1.1712415218353271,294,1.0,1
1794,1,1.0,0,1.3772410154342651,295,1.0,1
1795,1,1.0,0,1.9412338733673096,296,1.0,1
1796,1,1.0,0,1.2042415142059326,297,1.0,1
1797,1,1.0,0,1.7722359895706177,298,1.0,1
1798,1,1.0,0,1.528239130973816,299,1.0,1
1799,1,1.0,0,1.6992368698120117,300,1.0,1
1800,1,1.0,0,1.3192417621612549,301,1.0,1
1801,1,1.0,0,1.7052369117736816,302,1.0,1
1802,1,1.0,0,1.7952356338500977,303,1.0,1
1803,1,1.0,0,1.5322390794754028,304,0.0,1
1804,1,1.0,0,1.7262365818023682,305,1.0,1
1805,1,1.0,0,1.2302416563034058,306,0.0,1
1806,1,0.0,0,1.4832396507263184,307,0.0,1
1807,1,0.0,0,1.9682334661483765,308,1.0,1
1808,1,0.0,0,1.355241298675537,309,0.0,1
1809,1,0.0,0,1.4022407531738281,310,1.0,1
1810,1,0.0,0,1.5742385387420654,311,1.0,1
1811,1,0.0,0,1.5482388734817505,312,0.0,1
1812,1,0.0,0,1.686237096786499,313,0.0,1
1813,1,0.0,0,1.3942408561706543,314,0.0,1
1814,1,1.0,0,1.7592360973358154,315,1.0,1
1815,1,1.0,0,1.425240397453308,316,1.0,1
1816,1,1.0,0,1.2332416772842407,317,1.0,1
1817,1,1.0,0,1.4652398824691772,318,1.0,1
1818,1,1.0,0,1.9782333374023438,319,1.0,1
1819,1,0.0,0,1.2682416439056396,320,0.0,1
1820,1,1.0,0,2.1962380409240723,321,1.0,1
1821,1,1.0,0,1.8692348003387451,322,1.0,1
1822,1,1.0,0,1.3072417974472046,323,1.0,1
1823,1,0.0,0,1.5052393674850464,324,0.0,1
1824,1,1.0,0,1.7192366123199463,325,1.0,1
1825,1,1.0,0,1.3832409381866455,326,1.0,1
1826,1,1.0,0,1.9502336978912354,327,1.0,1
1827,1,1.0,0,1.2962417602539062,328,1.0,1
1828,1,1.0,0,1.782235860824585,329,1.0,1
1829,1,1.0,0,1.4742398262023926,330,0.0,1
1830,1,0.0,0,1.2312415838241577,331,0.0,1
1831,1,0.0,0,1.3802410364151,332,0.0,1
1832,1,0.0,0,1.3502414226531982,333,0.0,1
1833,1,1.0,0,1.8932344913482666,334,1.0,1
1834,1,1.0,0,1.4162405729293823,335,1.0,1
1835,1,1.0,0,1.4372402429580688,336,1.0,1
1836,1,1.0,0,1.9312338829040527,337,1.0,1
1837,1,1.0,0,1.4492400884628296,338,1.0,1
1838,1,1.0,0,1.7692360877990723,339,0.0,1
1839,1,1.0,0,1.4922395944595337,340,1.0,1
1840,1,1.0,0,1.312241792678833,341,0.0,1
1841,1,1.0,0,1.8072354793548584,342,1.0,1
1842,1,1.0,0,1.7612361907958984,343,1.0,1
1843,1,1.0,0,1.4522401094436646,344,1.0,1
1844,1,1.0,0,1.6952369213104248,345,0.0,1
1845,1,0.0,0,1.7172367572784424,346,0.0,1
1846,1,0.0,0,2.3052432537078857,347,0.0,1
1847,1,0.0,0,1.4442402124404907,348,0.0,1
1848,1,1.0,0,1.7542362213134766,349,1.0,1
1849,1,1.0,0,1.6612374782562256,350,0.0,1
1850,1,0.0,0,1.5632386207580566,351,0.0,1
1851,1,0.0,0,1.6052381992340088,352,0.0,1
1852,1,0.0,0,1.3282417058944702,353,0.0,1
1853,1,0.0,0,2.332244396209717,354,0.0,1
1854,1,0.0,0,1.1422414779663086,355,0.0,1
1855,1,0.0,0,2.061232328414917,356,1.0,1
1856,1,0.0,0,1.2312415838241577,357,0.0,1
1857,1,0.0,0,1.6192378997802734,358,0.0,1
1858,1,0.0,0,2.091233253479004,359,0.0,1
1859,1,1.0,0,1.5962382555007935,360,0.0,1
1860,1,1.0,0,1.3562413454055786,361,1.0,1
1861,1,1.0,0,1.248241662979126,362,1.0,1
1862,1,1.0,0,1.7402364015579224,363,1.0,1
1863,1,1.0,0,1.8102355003356934,364,1.0,1
1864,1,1.0,0,1.6052381992340088,365,0.0,1
1865,1,0.0,0,2.079232692718506,366,0.0,1
1866,1,1.0,0,1.6092381477355957,367,1.0,1
1867,1,1.0,0,1.4132405519485474,368,1.0,1
1868,1,1.0,0,1.5492388010025024,369,1.0,1
1869,1,1.0,0,1.2612416744232178,370,1.0,1
1870,1,1.0,0,2.1992383003234863,371,1.0,1
1871,1,1.0,0,1.4472401142120361,372,1.0,1
1872,1,1.0,0,1.6142380237579346,373,1.0,1
1873,1,1.0,0,1.9432337284088135,374,1.0,1
1874,1,1.0,0,2.2802419662475586,375,1.0,1
1875,1,1.0,0,1.5782384872436523,376,1.0,1
1876,1,1.0,0,1.3302416801452637,377,1.0,1
1877,1,1.0,0,1.3692411184310913,378,1.0,1
1878,1,1.0,0,1.211241602897644,379,1.0,1
1879,1,1.0,0,1.5582387447357178,380,1.0,1
1880,1,1.0,0,1.6622374057769775,381,1.0,1
1881,1,1.0,0,1.5292390584945679,382,1.0,1
1882,1,1.0,0,1.3962408304214478,383,1.0,1
1883,1,1.0,0,1.2842416763305664,384,1.0,1
1884,1,1.0,0,1.598238229751587,385,1.0,1
1885,1,1.0,0,1.2562416791915894,386,1.0,1
1886,1,1.0,0,1.5532387495040894,387,1.0,1
1887,1,1.0,0,1.407240629196167,388,1.0,1
1888,1,1.0,0,1.454240083694458,389,0.0,1
1889,1,0.0,0,1.7662360668182373,390,0.0,1
1890,1,1.0,0,2.4572503566741943,391,1.0,1
1891,1,1.0,0,1.4042407274246216,392,1.0,1
1892,1,1.0,0,1.5162392854690552,393,1.0,1
1893,1,1.0,0,1.2572417259216309,394,1.0,1
1894,1,1.0,0,1.598238229751587,395,1.0,1
1895,1,0.0,0,1.2382416725158691,396,1.0,1
1896,1,0.0,0,1.7762359380722046,397,1.0,1
1897,1,0.0,0,1.8392350673675537,398,0.0,1
1898,1,1.0,0,1.708236813545227,399,1.0,1
1899,1,0.0,0,1.685237169265747,400,1.0,1
1900,1,0.0,0,1.6142380237579346,401,0.0,1
1901,1,1.0,0,1.5322390794754028,402,1.0,1
1902,1,1.0,0,1.1982415914535522,403,1.0,1
1903,1,1.0,0,2.391247272491455,404,1.0,1
1904,1,1.0,0,1.4912395477294922,405,1.0,1
1905,1,1.0,0,1.5812385082244873,406,0.0,1
1906,1,0.0,0,1.355241298675537,407,0.0,1
1907,1,0.0,0,1.4442402124404907,408,0.0,1
1908,1,1.0,0,2.2612411975860596,409,1.0,1
1909,1,1.0,0,1.275241732597351,410,1.0,1
1910,1,1.0,0,1.2682416439056396,411,1.0,1
1911,1,1.0,0,1.3902409076690674,412,1.0,1
1912,1,1.0,0,1.2382416725158691,413,1.0,1
1913,1,1.0,0,1.450240135192871,414,1.0,1
1914,1,1.0,0,1.2932417392730713,415,1.0,1
1915,1,1.0,0,1.3522413969039917,416,1.0,1
1916,1,1.0,0,1.8192353248596191,417,0.0,1
1917,1,1.0,0,1.2592417001724243,418,1.0,1
1918,1,1.0,0,1.1922415494918823,419,1.0,1
1919,1,1.0,0,1.4532400369644165,420,1.0,1
1920,1,0.0,0,1.3002417087554932,421,0.0,1
1921,1,1.0,0,1.3342416286468506,422,0.0,1
1922,1,0.0,0,1.1892415285110474,423,0.0,1
1923,1,1.0,0,1.3142417669296265,424,1.0,1
1924,1,0.0,0,2.118234634399414,425,0.0,1
1925,1,1.0,0,1.8842345476150513,426,1.0,1
1926,1,1.0,0,1.9372339248657227,427,1.0,1
1927,1,1.0,0,1.275241732597351,428,1.0,1
1928,1,1.0,0,1.6752371788024902,429,1.0,1
1929,1,1.0,0,1.359241247177124,430,1.0,1
1930,1,1.0,0,1.2972418069839478,431,1.0,1
1931,1,1.0,0,1.2602417469024658,432,1.0,1
1932,1,1.0,0,1.2832417488098145,433,1.0,1
1933,1,1.0,0,1.4422402381896973,434,1.0,1
1934,1,1.0,0,1.5002394914627075,435,1.0,1
1935,1,1.0,0,1.525239109992981,436,1.0,1
1936,1,1.0,0,1.6402376890182495,437,0.0,1
1937,1,0.0,0,1.7492363452911377,438,0.0,1
1938,1,1.0,0,2.112234115600586,439,1.0,1
1939,1,0.0,0,1.2352416515350342,440,0.0,1
1940,1,1.0,0,1.8182353973388672,441,1.0,1
1941,1,1.0,0,1.3002417087554932,442,1.0,1
1942,1,1.0,0,1.407240629196167,443,1.0,1
1943,1,1.0,0,1.3142417669296265,444,0.0,1
1944,1,0.0,0,1.309241771697998,445,0.0,1
1945,1,0.0,0,1.948233723640442,446,0.0,1
1946,1,1.0,0,1.643237590789795,447,1.0,1
1947,1,1.0,0,1.275241732597351,448,1.0,1
1948,1,1.0,0,1.5272390842437744,449,1.0,1
1949,1,1.0,0,1.6002382040023804,450,0.0,1
1950,1,0.0,0,1.822235345840454,451,1.0,1
1951,1,0.0,0,1.2992417812347412,452,0.0,1
1952,1,1.0,0,2.084232807159424,453,1.0,1
1953,1,0.0,0,1.4472401142120361,454,0.0,1
1954,1,1.0,0,1.363241195678711,455,1.0,1
1955,1,1.0,0,1.251241683959961,456,1.0,1
1956,1,1.0,0,1.2532416582107544,457,1.0,1
1957,1,1.0,0,1.4162405729293823,458,1.0,1
1958,1,1.0,0,1.568238615989685,459,1.0,1
1959,1,1.0,0,1.2712416648864746,460,1.0,1
1960,1,1.0,0,1.6942369937896729,461,0.0,1
1961,1,0.0,0,1.590238332748413,462,0.0,1
1962,1,0.0,0,1.181241512298584,463,0.0,1
1963,1,0.0,0,1.3952407836914062,464,0.0,1
1964,1,1.0,0,1.5532387495040894,465,1.0,1
1965,1,1.0,0,1.2402416467666626,466,1.0,1
1966,1,1.0,0,1.3272416591644287,467,1.0,1
1967,1,1.0,0,1.6182379722595215,468,1.0,1
1968,1,1.0,0,1.3542413711547852,469,1.0,1
1969,1,1.0,0,1.5192391872406006,470,1.0,1
1970,1,1.0,0,1.4162405729293823,471,1.0,1
1971,1,1.0,0,1.4652398824691772,472,1.0,1
1972,1,1.0,0,1.275241732597351,473,1.0,1
1973,1,1.0,0,1.3262417316436768,474,1.0,1
1974,1,1.0,0,1.6302378177642822,475,1.0,1
1975,1,1.0,0,1.385240912437439,476,0.0,1
1976,1,1.0,0,1.3642412424087524,477,1.0,1
1977,1,1.0,0,1.4592399597167969,478,1.0,1
1978,1,1.0,0,1.4012407064437866,479,1.0,1
1979,1,1.0,0,1.4662399291992188,480,1.0,1
1980,1,1.0,0,1.4152405261993408,481,0.0,1
1981,1,0.0,0,1.3972407579421997,482,0.0,1
1982,1,0.0,0,1.2102415561676025,483,0.0,1
1983,1,0.0,0,1.6242378950119019,484,0.0,1
1984,1,0.0,0,1.543238878250122,485,0.0,1
1985,1,1.0,0,1.454240083694458,486,0.0,1
1986,1,0.0,0,1.6762372255325317,487,0.0,1
1987,1,0.0,0,1.641237735748291,488,0.0,1
1988,1,1.0,0,1.4622399806976318,489,1.0,1
1989,1,1.0,0,1.3542413711547852,490,0.0,1
1990,1,0.0,0,1.8062355518341064,491,1.0,1
1991,1,0.0,0,1.306241750717163,492,1.0,1
1992,1,0.0,0,1.1732414960861206,493,0.0,1
1993,1,1.0,0,2.146235942840576,494,1.0,1
1994,1,1.0,0,1.638237714767456,495,0.0,1
1995,1,0.0,0,1.6032381057739258,496,0.0,1
1996,1,0.0,0,1.3422415256500244,497,0.0,1
1997,1,0.0,0,1.5572386980056763,498,0.0,1
1998,1,1.0,0,1.4682399034500122,499,1.0,1
1999,1,1.0,0,1.8902344703674316,500,1.0,1
2000,1,1.0,1,1.2252416610717773,1,1.0,1
2001,1,1.0,1,1.9582335948944092,2,1.0,1
2002,1,1.0,1,1.5102393627166748,3,1.0,1
2003,1,1.0,1,1.7912356853485107,4,1.0,1
2004,1,1.0,1,2.114234447479248,5,1.0,1
2005,1,1.0,1,1.3272416591644287,6,0.0,1
2006,1,0.0,1,1.5182392597198486,7,1.0,1
2007,1,0.0,1,2.0262327194213867,8,0.0,1
2008,1,0.0,1,1.2132415771484375,9,1.0,1
2009,1,0.0,1,1.3972407579421997,10,0.0,1
2010,1,0.0,1,1.9842332601547241,11,1.0,1
2011,1,0.0,1,1.4162405729293823,12,0.0,1
2012,1,1.0,1,1.873234748840332,13,1.0,1
2013,1,1.0,1,1.4962395429611206,14,1.0,1
2014,1,1.0,1,1.2912417650222778,15,1.0,1
2015,1,0.0,1,1.282241702079773,16,0.0,1
2016,1,1.0,1,1.3902409076690674,17,1.0,1
2017,1,1.0,1,1.4092406034469604,18,1.0,1
2018,1,1.0,1,1.4712398052215576,19,0.0,1
2019,1,0.0,1,1.686237096786499,20,1.0,1
2020,1,0.0,1,1.4002407789230347,21,1.0,1
2021,1,0.0,1,1.285241723060608,22,0.0,1
2022,1,0.0,1,1.7042368650436401,23,1.0,1
2023,1,0.0,1,1.2242416143417358,24,0.0,1
2024,1,1.0,1,1.7072367668151855,25,0.0,1
2025,1,1.0,1,1.3242417573928833,26,1.0,1
2026,1,1.0,1,1.503239393234253,27,1.0,1
2027,1,1.0,1,1.31624174118042,28,1.0,1
2028,1,1.0,1,1.3652411699295044,29,0.0,1
2029,1,1.0,1,2.624258041381836,30,1.0,1
2030,1,1.0,1,2.138235569000244,31,1.0,1
2031,1,1.0,1,1.6652374267578125,32,1.0,1
2032,1,1.0,1,1.6052381992340088,33,1.0,1
2033,1,1.0,1,1.333241581916809,34,0.0,1
2034,1,1.0,1,1.306241750717163,35,1.0,1
2035,1,0.0,1,1.4632399082183838,36,0.0,1
2036,1,1.0,1,1.337241530418396,37,1.0,1
2037,1,0.0,1,1.5112392902374268,38,1.0,1
2038,1,1.0,1,1.6022381782531738,39,1.0,1
2039,1,1.0,1,2.1952381134033203,40,1.0,1
2040,1,1.0,1,1.45524001121521,41,1.0,1
2041,1,0.0,1,1.6192378997802734,42,1.0,1
2042,1,1.0,1,2.067232131958008,43,1.0,1
2043,1,1.0,1,1.5172392129898071,44,1.0,1
2044,1,0.0,1,1.3862409591674805,45,0.0,1
2045,1,1.0,1,1.4202405214309692,46,0.0,1
2046,1,0.0,1,1.4052406549453735,47,0.0,1
2047,1,0.0,1,1.3052418231964111,48,0.0,1
2048,1,1.0,1,1.830235242843628,49,1.0,1
2049,1,1.0,1,1.3942408561706543,50,1.0,1
2050,1,1.0,1,1.7262365818023682,51,0.0,1
2051,1,0.0,1,1.3532413244247437,52,1.0,1
2052,1,0.0,1,1.2052415609359741,53,1.0,1
2053,1,0.0,1,1.2022415399551392,54,1.0,1
2054,1,0.0,1,1.1682415008544922,55,0.0,1
2055,1,0.0,1,2.365246057510376,56,0.0,1
2056,1,0.0,1,1.3992407321929932,57,0.0,1
2057,1,0.0,1,1.6302378177642822,58,1.0,1
2058,1,0.0,1,1.1492414474487305,59,0.0,1
2059,1,1.0,1,1.31624174118042,60,1.0,1
2060,1,1.0,1,1.4942395687103271,61,1.0,1
2061,1,1.0,1,1.281241774559021,62,1.0,1
2062,1,1.0,1,1.6632373332977295,63,0.0,1
2063,1,1.0,1,1.616237998008728,64,0.0,1
2064,1,0.0,1,1.4602400064468384,65,0.0,1
2065,1,0.0,1,1.5352389812469482,66,0.0,1
2066,1,1.0,1,1.214241623878479,67,1.0,1
2067,1,1.0,1,1.285241723060608,68,1.0,1
2068,1,1.0,1,1.2802417278289795,69,0.0,1
2069,1,1.0,1,1.4972394704818726,70,1.0,1
2070,1,1.0,1,1.2952417135238647,71,1.0,1
2071,1,1.0,1,1.4272403717041016,72,0.0,1
2072,1,0.0,1,1.1852415800094604,73,1.0,1
2073,1,0.0,1,1.2952417135238647,74,0.0,1
2074,1,1.0,1,1.4472401142120361,75,1.0,1
2075,1,0.0,1,1.4462401866912842,76,0.0,1
2076,1,1.0,1,1.1702414751052856,77,1.0,1
2077,1,1.0,1,1.355241298675537,78,1.0,1
2078,1,0.0,1,1.3232417106628418,79,0.0,1
2079,1,1.0,1,1.8032355308532715,80,1.0,1
2080,1,1.0,1,1.3602412939071655,81,1.0,1
2081,1,1.0,1,1.4392402172088623,82,0.0,1
2082,1,1.0,1,1.251241683959961,83,1.0,1
2083,1,1.0,1,1.242241621017456,84,0.0,1
2084,1,1.0,1,2.083232879638672,85,1.0,1
2085,1,0.0,1,1.2502416372299194,86,1.0,1
2086,1,1.0,1,1.7672359943389893,87,0.0,1
2087,1,0.0,1,1.5962382555007935,88,1.0,1
2088,1,0.0,1,1.2222416400909424,89,1.0,1
2089,1,0.0,1,1.2702417373657227,90,0.0,1
2090,1,1.0,1,1.1762415170669556,91,0.0,1
2091,1,0.0,1,1.8192353248596191,92,1.0,1
2092,1,0.0,1,1.7612361907958984,93,0.0,1
2093,1,0.0,1,1.3222417831420898,94,0.0,1
2094,1,0.0,1,1.1952415704727173,95,0.0,1
2095,1,1.0,1,1.5632386207580566,96,1.0,1
2096,1,1.0,1,1.4212404489517212,97,1.0,1
2097,1,1.0,1,2.169236898422241,98,0.0,1
2098,1,0.0,1,1.3192417621612549,99,0.0,1
2099,1,0.0,1,1.359241247177124,100,0.0,1
2100,1,0.0,1,1.358241319656372,101,1.0,1
2101,1,0.0,1,1.598238229751587,102,0.0,1
2102,1,0.0,1,1.4152405261993408,103,1.0,1
2103,1,0.0,1,1.5572386980056763,104,0.0,1
2104,1,0.0,1,1.451240062713623,105,0.0,1
2105,1,0.0,1,1.8072354793548584,106,0.0,1
2106,1,1.0,1,2.1812374591827393,107,1.0,1
2107,1,1.0,1,1.1962416172027588,108,1.0,1
2108,1,1.0,1,1.4142405986785889,109,0.0,1
2109,1,1.0,1,2.2222394943237305,110,0.0,1
2110,1,0.0,1,1.9072341918945312,111,0.0,1
2111,1,1.0,1,1.9242340326309204,112,1.0,1
2112,1,1.0,1,1.2672417163848877,113,1.0,1
2113,1,1.0,1,1.4392402172088623,114,1.0,1
2114,1,1.0,1,1.4712398052215576,115,1.0,1
2115,1,1.0,1,1.830235242843628,116,1.0,1
2116,1,1.0,1,1.458240032196045,117,1.0,1
2117,1,1.0,1,1.5562387704849243,118,1.0,1
2118,1,0.0,1,1.1642415523529053,119,0.0,1
2119,1,1.0,1,1.281241774559021,120,1.0,1
2120,1,0.0,1,1.6092381477355957,121,0.0,1
2121,1,1.0,1,1.7802358865737915,122,1.0,1
2122,1,1.0,1,1.1582415103912354,123,0.0,1
2123,1,0.0,1,2.4262490272521973,124,0.0,1
2124,1,0.0,1,1.180241584777832,125,0.0,1
2125,1,0.0,1,1.3252416849136353,126,0.0,1
2126,1,0.0,1,1.3672411441802979,127,0.0,1
2127,1,0.0,1,1.3212417364120483,128,1.0,1
2128,1,0.0,1,1.3782410621643066,129,0.0,1
2129,1,0.0,1,1.4382402896881104,130,0.0,1
2130,1,1.0,1,1.3782410621643066,131,1.0,1
2131,1,1.0,1,1.1832414865493774,132,1.0,1
2132,1,1.0,1,1.2992417812347412,133,1.0,1
2133,1,1.0,1,1.315241813659668,134,1.0,1
2134,1,1.0,1,1.2912417650222778,135,1.0,1
2135,1,1.0,1,2.2742419242858887,136,0.0,1
2136,1,1.0,1,2.08823299407959,137,0.0,1
2137,1,1.0,1,1.781235933303833,138,0.0,1
2138,1,0.0,1,1.8882344961166382,139,1.0,1
2139,1,0.0,1,1.208241581916809,140,0.0,1
2140,1,0.0,1,1.8012356758117676,141,0.0,1
2141,1,1.0,1,1.682237148284912,142,0.0,1
2142,1,1.0,1,1.5772385597229004,143,0.0,1
2143,1,1.0,1,1.6132380962371826,144,1.0,1
2144,1,1.0,1,1.8162354230880737,145,1.0,1
2145,1,1.0,1,1.358241319656372,146,1.0,1
2146,1,1.0,1,1.7622361183166504,147,1.0,1
2147,1,1.0,1,1.4532400369644165,148,1.0,1
2148,1,1.0,1,1.5872383117675781,149,1.0,1
2149,1,1.0,1,1.3542413711547852,150,0.0,1
2150,1,1.0,1,2.003232955932617,151,1.0,1
2151,1,1.0,1,1.285241723060608,152,0.0,1
2152,1,0.0,1,2.141235589981079,153,0.0,1
2153,1,1.0,1,2.152235984802246,154,1.0,1
2154,1,1.0,1,1.281241774559021,155,1.0,1
2155,1,1.0,1,1.309241771697998,156,0.0,1
2156,1,1.0,1,1.503239393234253,157,1.0,1
2157,1,1.0,1,1.2722417116165161,158,1.0,1
2158,1,1.0,1,1.5762385129928589,159,1.0,1
2159,1,1.0,1,1.3932408094406128,160,1.0,1
2160,1,1.0,1,1.5802384614944458,161,1.0,1
2161,1,1.0,1,1.2702417373657227,162,1.0,1
2162,1,1.0,1,1.6722372770309448,163,1.0,1
2163,1,1.0,1,1.4142405986785889,164,1.0,1
2164,1,1.0,1,1.3032417297363281,165,1.0,1
2165,1,1.0,1,1.4312403202056885,166,1.0,1
2166,1,1.0,1,1.499239444732666,167,1.0,1
2167,1,1.0,1,1.3712410926818848,168,0.0,1
2168,1,1.0,1,1.3052418231964111,169,0.0,1
2169,1,1.0,1,1.4412401914596558,170,1.0,1
2170,1,1.0,1,1.242241621017456,171,1.0,1
2171,1,1.0,1,1.5582387447357178,172,1.0,1
2172,1,1.0,1,1.5352389812469482,173,0.0,1
2173,1,1.0,1,1.5122393369674683,174,0.0,1
2174,1,0.0,1,1.8862345218658447,175,1.0,1
2175,1,0.0,1,2.006232976913452,176,0.0,1
2176,1,0.0,1,1.2882417440414429,177,0.0,1
2177,1,1.0,1,1.7592360973358154,178,1.0,1
2178,1,0.0,1,2.0322327613830566,179,0.0,1
2179,1,1.0,1,1.4702398777008057,180,0.0,1
2180,1,1.0,1,1.1652414798736572,181,1.0,1
2181,1,1.0,1,1.3892408609390259,182,0.0,1
2182,1,0.0,1,1.5392389297485352,183,0.0,1
2183,1,1.0,1,1.3762410879135132,184,1.0,1
2184,1,1.0,1,1.358241319656372,185,1.0,1
2185,1,1.0,1,1.5412389039993286,186,1.0,1
2186,1,1.0,1,1.6212379932403564,187,1.0,1
2187,1,1.0,1,1.451240062713623,188,0.0,1
2188,1,0.0,1,1.5162392854690552,189,0.0,1
2189,1,1.0,1,1.6762372255325317,190,1.0,1
2190,1,1.0,1,1.239241600036621,191,1.0,1
2191,1,1.0,1,1.2732417583465576,192,1.0,1
2192,1,1.0,1,1.3652411699295044,193,1.0,1
2193,1,1.0,1,1.4972394704818726,194,0.0,1
2194,1,0.0,1,1.1612415313720703,195,0.0,1
2195,1,1.0,1,1.7732360363006592,196,1.0,1
2196,1,1.0,1,1.8552348613739014,197,1.0,1
2197,1,1.0,1,1.8202353715896606,198,0.0,1
2198,1,0.0,1,1.639237642288208,199,1.0,1
2199,1,0.0,1,1.4622399806976318,200,0.0,1
2200,1,1.0,1,1.8442350625991821,201,0.0,1
2201,1,1.0,1,1.6152379512786865,202,0.0,1
2202,1,1.0,1,1.9362338781356812,203,1.0,1
2203,1,1.0,1,1.4702398777008057,204,1.0,1
2204,1,1.0,1,1.4372402429580688,205,1.0,1
2205,1,1.0,1,1.5582387447357178,206,1.0,1
2206,1,1.0,1,1.279241681098938,207,0.0,1
2207,1,1.0,1,1.7182366847991943,208,1.0,1
2208,1,1.0,1,1.5232391357421875,209,0.0,1
2209,1,0.0,1,1.923233985900879,210,0.0,1
2210,1,0.0,1,1.9102342128753662,211,1.0,1
2211,1,1.0,1,1.6042381525039673,212,1.0,1
2212,1,1.0,1,1.520239233970642,213,1.0,1
2213,1,0.0,1,2.2392401695251465,214,0.0,1
2214,1,0.0,1,1.9952330589294434,215,1.0,1
2215,1,1.0,1,1.4962395429611206,216,1.0,1
2216,1,1.0,1,1.5782384872436523,217,1.0,1
2217,1,0.0,1,1.3872408866882324,218,0.0,1
2218,1,0.0,1,2.0492324829101562,219,1.0,1
2219,1,1.0,1,1.4792397022247314,220,1.0,1
2220,1,0.0,1,1.9082342386245728,221,0.0,1
2221,1,1.0,1,1.2132415771484375,222,0.0,1
2222,1,1.0,1,1.2882417440414429,223,1.0,1
2223,1,1.0,1,1.45524001121521,224,0.0,1
2224,1,1.0,1,1.8112354278564453,225,0.0,1
2225,1,1.0,1,1.9722334146499634,226,0.0,1
2226,1,0.0,1,1.9682334661483765,227,0.0,1
2227,1,1.0,1,1.6252379417419434,228,1.0,1
2228,1,1.0,1,1.5442389249801636,229,1.0,1
2229,1,1.0,1,1.5352389812469482,230,0.0,1
2230,1,1.0,1,1.4002407789230347,231,1.0,1
2231,1,1.0,1,1.3422415256500244,232,1.0,1
2232,1,1.0,1,1.524239182472229,233,1.0,1
2233,1,1.0,1,1.2642416954040527,234,1.0,1
2234,1,1.0,1,1.4492400884628296,235,1.0,1
2235,1,1.0,1,1.4222404956817627,236,1.0,1
2236,1,1.0,1,1.3422415256500244,237,1.0,1
2237,1,1.0,1,1.4562400579452515,238,1.0,1
2238,1,1.0,1,1.5482388734817505,239,1.0,1
2239,1,1.0,1,1.3232417106628418,240,1.0,1
2240,1,1.0,1,1.6492376327514648,241,0.0,1
2241,1,0.0,1,1.7052369117736816,242,0.0,1
2242,1,1.0,1,1.5382390022277832,243,1.0,1
2243,1,1.0,1,1.6212379932403564,244,0.0,1
2244,1,0.0,1,1.5422389507293701,245,1.0,1
2245,1,0.0,1,1.2532416582107544,246,1.0,1
2246,1,0.0,1,1.5492388010025024,247,1.0,1
2247,1,0.0,1,1.6272377967834473,248,0.0,1
2248,1,0.0,1,1.6012382507324219,249,0.0,1
2249,1,1.0,1,2.2012383937835693,250,1.0,1
2250,1,1.0,1,1.6232378482818604,251,1.0,1
2251,1,1.0,1,1.3952407836914062,252,0.0,1
2252,1,1.0,1,1.5492388010025024,253,1.0,1
2253,1,1.0,1,1.2902417182922363,254,1.0,1
2254,1,1.0,1,1.388240933418274,255,1.0,1
2255,1,1.0,1,1.778235912322998,256,1.0,1
2256,1,1.0,1,1.877234697341919,257,1.0,1
2257,1,1.0,1,2.4452497959136963,258,1.0,1
2258,1,1.0,1,1.2992417812347412,259,0.0,1
2259,1,1.0,1,1.7242366075515747,260,0.0,1
2260,1,0.0,1,1.4742398262023926,261,0.0,1
2261,1,1.0,1,1.3682411909103394,262,1.0,1
2262,1,1.0,1,1.341241478919983,263,0.0,1
2263,1,1.0,1,1.3932408094406128,264,1.0,1
2264,1,1.0,1,1.7472362518310547,265,1.0,1
2265,1,1.0,1,1.5772385597229004,266,0.0,1
2266,1,1.0,1,1.2272416353225708,267,1.0,1
2267,1,1.0,1,1.7952356338500977,268,1.0,1
2268,1,1.0,1,1.4022407531738281,269,0.0,1
2269,1,1.0,1,1.3072417974472046,270,1.0,1
2270,1,1.0,1,1.3212417364120483,271,1.0,1
2271,1,1.0,1,1.2302416563034058,272,1.0,1
2272,1,1.0,1,1.4972394704818726,273,1.0,1
2273,1,1.0,1,1.3932408094406128,274,1.0,1
2274,1,1.0,1,1.5292390584945679,275,1.0,1
2275,1,1.0,1,1.5322390794754028,276,1.0,1
2276,1,1.0,1,1.6982369422912598,277,1.0,1
2277,1,1.0,1,1.3832409381866455,278,0.0,1
2278,1,1.0,1,2.1822376251220703,279,1.0,1
2279,1,1.0,1,1.3042417764663696,280,1.0,1
2280,1,1.0,1,2.096233367919922,281,1.0,1
2281,1,1.0,1,1.3282417058944702,282,1.0,1
2282,1,1.0,1,1.6002382040023804,283,0.0,1
2283,1,1.0,1,2.397247552871704,284,1.0,1
2284,1,1.0,1,1.1962416172027588,285,1.0,1
2285,1,1.0,1,1.473239779472351,286,1.0,1
2286,1,1.0,1,1.2582416534423828,287,1.0,1
2287,1,1.0,1,1.1962416172027588,288,1.0,1
2288,1,1.0,1,1.8412351608276367,289,0.0,1
2289,1,1.0,1,1.3522413969039917,290,1.0,1
2290,1,1.0,1,1.2882417440414429,291,1.0,1
2291,1,1.0,1,1.4262404441833496,292,1.0,1
2292,1,1.0,1,1.2762417793273926,293,1.0,1
2293,1,1.0,1,1.7062368392944336,294,1.0,1
2294,1,1.0,1,1.6102380752563477,295,0.0,1
2295,1,0.0,1,1.6072380542755127,296,1.0,1
2296,1,0.0,1,1.3432414531707764,297,0.0,1
2297,1,1.0,1,1.6512374877929688,298,1.0,1
2298,1,1.0,1,1.9202340841293335,299,1.0,1
2299,1,1.0,1,1.5292390584945679,300,1.0,1
2300,1,1.0,1,1.2022415399551392,301,1.0,1
2301,1,1.0,1,1.6572375297546387,302,1.0,1
2302,1,1.0,1,1.388240933418274,303,1.0,1
2303,1,1.0,1,1.3702411651611328,304,0.0,1
2304,1,1.0,1,1.8022356033325195,305,1.0,1
2305,1,1.0,1,1.2202415466308594,306,1.0,1
2306,1,1.0,1,1.6082381010055542,307,1.0,1
2307,1,1.0,1,1.3692411184310913,308,0.0,1
2308,1,1.0,1,1.2652417421340942,309,0.0,1
2309,1,1.0,1,1.40324068069458,310,1.0,1
2310,1,0.0,1,1.31624174118042,311,1.0,1
2311,1,0.0,1,1.2342416048049927,312,0.0,1
2312,1,1.0,1,1.7242366075515747,313,1.0,1
2313,1,1.0,1,1.4572399854660034,314,1.0,1
2314,1,1.0,1,1.4122406244277954,315,1.0,1
2315,1,1.0,1,1.5872383117675781,316,0.0,1
2316,1,1.0,1,1.9742333889007568,317,1.0,1
2317,1,1.0,1,1.6362377405166626,318,1.0,1
2318,1,1.0,1,1.4832396507263184,319,0.0,1
2319,1,0.0,1,1.7052369117736816,320,1.0,1
2320,1,0.0,1,1.242241621017456,321,0.0,1
2321,1,0.0,1,1.5272390842437744,322,0.0,1
2322,1,0.0,1,1.4222404956817627,323,0.0,1
2323,1,1.0,1,1.499239444732666,324,0.0,1
2324,1,1.0,1,2.125234842300415,325,0.0,1
2325,1,0.0,1,1.3052418231964111,326,0.0,1
2326,1,1.0,1,1.900234341621399,327,1.0,1
2327,1,1.0,1,1.281241774559021,328,1.0,1
2328,1,1.0,1,1.4742398262023926,329,1.0,1
2329,1,1.0,1,1.2532416582107544,330,1.0,1
2330,1,1.0,1,1.5752384662628174,331,0.0,1
2331,1,0.0,1,1.878234624862671,332,1.0,1
2332,1,0.0,1,1.5572386980056763,333,0.0,1
2333,1,0.0,1,1.870234727859497,334,1.0,1
2334,1,0.0,1,1.4712398052215576,335,1.0,1
2335,1,0.0,1,1.1252413988113403,336,0.0,1
2336,1,0.0,1,1.4592399597167969,337,0.0,1
2337,1,0.0,1,1.4752397537231445,338,0.0,1
2338,1,0.0,1,1.2632416486740112,339,1.0,1
2339,1,0.0,1,1.1942415237426758,340,1.0,1
2340,1,0.0,1,2.14223575592041,341,0.0,1
2341,1,1.0,1,1.6302378177642822,342,0.0,1
2342,1,0.0,1,1.473239779472351,343,0.0,1
2343,1,1.0,1,1.366241216659546,344,0.0,1
2344,1,0.0,1,1.1432414054870605,345,0.0,1
2345,1,1.0,1,1.8102355003356934,346,0.0,1
2346,1,0.0,1,1.2272416353225708,347,0.0,1
2347,1,0.0,1,1.9092342853546143,348,0.0,1
2348,1,0.0,1,1.3822410106658936,349,0.0,1
2349,1,0.0,1,1.174241542816162,350,0.0,1
2350,1,0.0,1,2.343245029449463,351,1.0,1
2351,1,0.0,1,1.406240701675415,352,0.0,1
2352,1,1.0,1,1.9932332038879395,353,0.0,1
2353,1,0.0,1,1.8122354745864868,354,0.0,1
2354,1,1.0,1,1.9392337799072266,355,0.0,1
2355,1,1.0,1,1.8102355003356934,356,0.0,1
2356,1,1.0,1,2.2232394218444824,357,1.0,1
2357,1,1.0,1,1.4632399082183838,358,0.0,1
2358,1,0.0,1,1.2592417001724243,359,0.0,1
2359,1,1.0,1,1.5382390022277832,360,1.0,1
2360,1,1.0,1,1.318241834640503,361,1.0,1
2361,1,1.0,1,1.874234676361084,362,1.0,1
2362,1,1.0,1,1.3992407321929932,363,0.0,1
2363,1,0.0,1,1.4012407064437866,364,0.0,1
2364,1,1.0,1,1.687237024307251,365,0.0,1
2365,1,0.0,1,1.6272377967834473,366,0.0,1
2366,1,1.0,1,2.058232307434082,367,1.0,1
2367,1,1.0,1,1.3562413454055786,368,0.0,1
2368,1,1.0,1,1.9352338314056396,369,1.0,1
2369,1,1.0,1,1.2732417583465576,370,1.0,1
2370,1,1.0,1,1.3832409381866455,371,1.0,1
2371,1,1.0,1,1.4632399082183838,372,0.0,1
2372,1,1.0,1,1.3642412424087524,373,0.0,1
2373,1,0.0,1,1.825235366821289,374,1.0,1
2374,1,0.0,1,1.3602412939071655,375,1.0,1
2375,1,0.0,1,1.917234182357788,376,0.0,1
2376,1,0.0,1,1.5112392902374268,377,1.0,1
2377,1,0.0,1,1.8682347536087036,378,1.0,1
2378,1,0.0,1,1.3602412939071655,379,0.0,1
2379,1,0.0,1,1.239241600036621,380,0.0,1
2380,1,1.0,1,2.4452497959136963,381,1.0,1
2381,1,1.0,1,1.5752384662628174,382,1.0,1
2382,1,1.0,1,1.7402364015579224,383,1.0,1
2383,1,1.0,1,1.5352389812469482,384,1.0,1
2384,1,1.0,1,1.336241602897644,385,0.0,1
2385,1,1.0,1,1.6742372512817383,386,1.0,1
2386,1,1.0,1,1.3992407321929932,387,1.0,1
2387,1,1.0,1,1.4862396717071533,388,1.0,1
2388,1,1.0,1,1.6762372255325317,389,1.0,1
2389,1,1.0,1,1.5052393674850464,390,1.0,1
2390,1,1.0,1,2.019232749938965,391,1.0,1
2391,1,1.0,1,1.3672411441802979,392,1.0,1
2392,1,1.0,1,1.3002417087554932,393,1.0,1
2393,1,1.0,1,1.2882417440414429,394,1.0,1
2394,1,1.0,1,1.4082406759262085,395,1.0,1
2395,1,1.0,1,1.340241551399231,396,1.0,1
2396,1,1.0,1,1.2832417488098145,397,1.0,1
2397,1,1.0,1,1.2552416324615479,398,1.0,1
2398,1,1.0,1,1.4852396249771118,399,1.0,1
2399,1,1.0,1,1.3712410926818848,400,1.0,1
2400,1,1.0,1,1.385240912437439,401,1.0,1
2401,1,1.0,1,1.6532375812530518,402,1.0,1
2402,1,1.0,1,1.4562400579452515,403,1.0,1
2403,1,1.0,1,1.3832409381866455,404,0.0,1
2404,1,1.0,1,1.9382338523864746,405,1.0,1
2405,1,1.0,1,1.6472375392913818,406,0.0,1
2406,1,1.0,1,2.081232786178589,407,1.0,1
2407,1,1.0,1,1.7872357368469238,408,0.0,1
2408,1,0.0,1,2.058232307434082,409,0.0,1
2409,1,1.0,1,1.7402364015579224,410,1.0,1
2410,1,1.0,1,1.9132342338562012,411,1.0,1
2411,1,1.0,1,1.4392402172088623,412,1.0,1
2412,1,1.0,1,1.7962356805801392,413,1.0,1
2413,1,1.0,1,1.4822397232055664,414,1.0,1
2414,1,1.0,1,1.5992381572723389,415,0.0,1
2415,1,1.0,1,1.5012394189834595,416,1.0,1
2416,1,0.0,1,1.4942395687103271,417,0.0,1
2417,1,1.0,1,1.520239233970642,418,1.0,1
2418,1,1.0,1,1.3492413759231567,419,1.0,1
2419,1,1.0,1,1.4242404699325562,420,1.0,1
2420,1,1.0,1,1.2732417583465576,421,0.0,1
2421,1,0.0,1,1.9382338523864746,422,1.0,1
2422,1,0.0,1,2.315243721008301,423,0.0,1
2423,1,1.0,1,1.3722411394119263,424,1.0,1
2424,1,1.0,1,1.1862415075302124,425,1.0,1
2425,1,1.0,1,1.3262417316436768,426,1.0,1
2426,1,1.0,1,1.4902396202087402,427,1.0,1
2427,1,1.0,1,1.4862396717071533,428,1.0,1
2428,1,1.0,1,1.4682399034500122,429,0.0,1
2429,1,0.0,1,1.2682416439056396,430,0.0,1
2430,1,0.0,1,1.4692398309707642,431,0.0,1
2431,1,1.0,1,1.5962382555007935,432,0.0,1
2432,1,1.0,1,1.8662347793579102,433,1.0,1
