,subj_idx,response,split_by,rt,trial,feedback,samp
0,0,1.0,0,1.5066555738449097,1,1.0,1
1,0,0.0,0,2.2636563777923584,2,0.0,1
2,0,1.0,0,1.7976518869400024,3,1.0,1
3,0,1.0,0,1.6266541481018066,4,0.0,1
4,0,1.0,0,1.7416526079177856,5,1.0,1
5,0,0.0,0,1.65165376663208,6,0.0,1
6,0,1.0,0,1.652653694152832,7,1.0,1
7,0,0.0,0,1.3426576852798462,8,0.0,1
8,0,1.0,0,1.6576536893844604,9,0.0,1
9,0,1.0,0,1.4366564750671387,10,1.0,1
10,0,1.0,0,1.5766546726226807,11,0.0,1
11,0,1.0,0,1.4316565990447998,12,1.0,1
12,0,1.0,0,1.6686534881591797,13,1.0,1
13,0,1.0,0,1.4536563158035278,14,1.0,1
14,0,1.0,0,1.9596498012542725,15,0.0,1
15,0,1.0,0,1.7606523036956787,16,1.0,1
16,0,1.0,0,1.542655110359192,17,1.0,1
17,0,1.0,0,1.5936545133590698,18,0.0,1
18,0,0.0,0,1.2676576375961304,19,0.0,1
19,0,1.0,0,1.6326539516448975,20,1.0,1
20,0,0.0,0,2.202653408050537,21,0.0,1
21,0,1.0,0,1.4336565732955933,22,1.0,1
22,0,1.0,0,1.2836576700210571,23,1.0,1
23,0,1.0,0,1.4306565523147583,24,1.0,1
24,0,1.0,0,1.292657732963562,25,1.0,1
25,0,1.0,0,1.6346540451049805,26,1.0,1
26,0,1.0,0,1.5136555433273315,27,1.0,1
27,0,1.0,0,1.8026518821716309,28,1.0,1
28,0,1.0,0,1.6416538953781128,29,1.0,1
29,0,1.0,0,1.4126567840576172,30,1.0,1
30,0,1.0,0,2.2596561908721924,31,1.0,1
31,0,1.0,0,1.3156577348709106,32,1.0,1
32,0,1.0,0,1.3966569900512695,33,1.0,1
33,0,1.0,0,1.371657371520996,34,1.0,1
34,0,1.0,0,1.5326552391052246,35,1.0,1
35,0,1.0,0,1.319657802581787,36,1.0,1
36,0,0.0,0,1.4616562128067017,37,1.0,1
37,0,1.0,0,1.9066505432128906,38,1.0,1
38,0,1.0,0,1.5936545133590698,39,1.0,1
39,0,1.0,0,2.3426599502563477,40,1.0,1
40,0,0.0,0,1.6506538391113281,41,0.0,1
41,0,0.0,0,1.6256541013717651,42,1.0,1
42,0,1.0,0,1.3246577978134155,43,1.0,1
43,0,1.0,0,1.792651891708374,44,1.0,1
44,0,1.0,0,1.702653169631958,45,0.0,1
45,0,0.0,0,1.4306565523147583,46,0.0,1
46,0,0.0,0,1.5296553373336792,47,0.0,1
47,0,1.0,0,2.179652452468872,48,1.0,1
48,0,1.0,0,1.7396526336669922,49,1.0,1
49,0,1.0,0,1.891650676727295,50,1.0,1
50,0,1.0,0,1.3646574020385742,51,1.0,1
51,0,1.0,0,1.346657633781433,52,1.0,1
52,0,1.0,0,1.7176529169082642,53,1.0,1
53,0,1.0,0,1.398656964302063,54,1.0,1
54,0,1.0,0,1.6696535348892212,55,1.0,1
55,0,0.0,0,1.2786576747894287,56,0.0,1
56,0,0.0,0,1.931650161743164,57,0.0,1
57,0,1.0,0,1.8346514701843262,58,1.0,1
58,0,1.0,0,1.519655466079712,59,1.0,1
59,0,1.0,0,1.229657530784607,60,1.0,1
60,0,1.0,0,1.2696576118469238,61,1.0,1
61,0,1.0,0,1.2996577024459839,62,0.0,1
62,0,1.0,0,1.286657691001892,63,1.0,1
63,0,1.0,0,1.2456575632095337,64,1.0,1
64,0,0.0,0,1.229657530784607,65,0.0,1
65,0,1.0,0,1.2586575746536255,66,1.0,1
66,0,1.0,0,1.5686547756195068,67,0.0,1
67,0,1.0,0,1.3786572217941284,68,1.0,1
68,0,1.0,0,1.1836574077606201,69,1.0,1
69,0,1.0,0,1.5906546115875244,70,1.0,1
70,0,1.0,0,1.817651629447937,71,1.0,1
71,0,1.0,0,1.449656367301941,72,1.0,1
72,0,0.0,0,1.2126575708389282,73,0.0,1
73,0,1.0,0,1.3346577882766724,74,1.0,1
74,0,1.0,0,1.9926493167877197,75,1.0,1
75,0,1.0,0,1.658653736114502,76,1.0,1
76,0,1.0,0,1.3526575565338135,77,1.0,1
77,0,0.0,0,1.2496576309204102,78,0.0,1
78,0,1.0,0,1.961649775505066,79,0.0,1
79,0,1.0,0,2.148651123046875,80,1.0,1
80,0,1.0,0,1.397657036781311,81,1.0,1
81,0,1.0,0,1.4386564493179321,82,0.0,1
82,0,0.0,0,1.8046517372131348,83,0.0,1
83,0,0.0,0,1.612654209136963,84,0.0,1
84,0,0.0,0,1.794651985168457,85,0.0,1
85,0,0.0,0,1.1816574335098267,86,0.0,1
86,0,1.0,0,1.7236528396606445,87,1.0,1
87,0,0.0,0,1.607654333114624,88,0.0,1
88,0,1.0,0,1.655653715133667,89,1.0,1
89,0,0.0,0,1.6616536378860474,90,0.0,1
90,0,1.0,0,1.9116504192352295,91,0.0,1
91,0,0.0,0,1.7176529169082642,92,0.0,1
92,0,0.0,0,1.5726547241210938,93,0.0,1
93,0,1.0,0,2.0176491737365723,94,1.0,1
94,0,1.0,0,1.5476551055908203,95,1.0,1
95,0,1.0,0,1.4296566247940063,96,0.0,1
96,0,1.0,0,1.332657814025879,97,1.0,1
97,0,1.0,0,1.7196528911590576,98,0.0,1
98,0,0.0,0,1.2386575937271118,99,0.0,1
99,0,1.0,0,2.112649440765381,100,1.0,1
100,0,0.0,0,1.633653998374939,101,1.0,1
101,0,0.0,0,1.286657691001892,102,0.0,1
102,0,1.0,0,1.3886570930480957,103,1.0,1
103,0,1.0,0,2.078648328781128,104,1.0,1
104,0,1.0,0,1.472656011581421,105,0.0,1
105,0,0.0,0,2.143650770187378,106,0.0,1
106,0,1.0,0,1.3886570930480957,107,1.0,1
107,0,1.0,0,1.4376565217971802,108,1.0,1
108,0,0.0,0,1.4256566762924194,109,0.0,1
109,0,1.0,0,1.7206528186798096,110,1.0,1
110,0,1.0,0,1.3286577463150024,111,1.0,1
111,0,1.0,0,2.142650604248047,112,0.0,1
112,0,1.0,0,1.7176529169082642,113,1.0,1
113,0,0.0,0,1.3596575260162354,114,1.0,1
114,0,0.0,0,1.4146567583084106,115,0.0,1
115,0,0.0,0,2.383661985397339,116,0.0,1
116,0,1.0,0,1.4966557025909424,117,1.0,1
117,0,1.0,0,1.3876571655273438,118,1.0,1
118,0,1.0,0,1.7096530199050903,119,0.0,1
119,0,0.0,0,1.5746546983718872,120,0.0,1
120,0,1.0,0,1.4636561870574951,121,1.0,1
121,0,1.0,0,1.4486563205718994,122,1.0,1
122,0,1.0,0,1.817651629447937,123,0.0,1
123,0,1.0,0,2.188652992248535,124,1.0,1
124,0,1.0,0,1.791651964187622,125,1.0,1
125,0,1.0,0,1.8156516551971436,126,1.0,1
126,0,1.0,0,2.155651330947876,127,1.0,1
127,0,1.0,0,1.4746559858322144,128,1.0,1
128,0,1.0,0,2.0516486167907715,129,1.0,1
129,0,1.0,0,1.6286540031433105,130,1.0,1
130,0,1.0,0,1.7236528396606445,131,1.0,1
131,0,1.0,0,2.026648998260498,132,1.0,1
132,0,1.0,0,1.7856520414352417,133,1.0,1
133,0,1.0,0,1.3806571960449219,134,1.0,1
134,0,1.0,0,1.493655800819397,135,1.0,1
135,0,1.0,0,1.7976518869400024,136,1.0,1
136,0,1.0,0,2.2626562118530273,137,1.0,1
137,0,1.0,0,1.7136529684066772,138,0.0,1
138,0,0.0,0,1.658653736114502,139,0.0,1
139,0,1.0,0,1.250657558441162,140,0.0,1
140,0,1.0,0,1.6616536378860474,141,1.0,1
141,0,1.0,0,1.397657036781311,142,1.0,1
142,0,1.0,0,1.607654333114624,143,1.0,1
143,0,1.0,0,1.6206541061401367,144,1.0,1
144,0,1.0,0,1.542655110359192,145,1.0,1
145,0,1.0,0,1.659653663635254,146,1.0,1
146,0,1.0,0,1.54165518283844,147,0.0,1
147,0,1.0,0,1.346657633781433,148,0.0,1
148,0,0.0,0,1.3566575050354004,149,1.0,1
149,0,0.0,0,1.2176575660705566,150,1.0,1
150,0,0.0,0,1.8676509857177734,151,0.0,1
151,0,1.0,0,1.5556550025939941,152,1.0,1
152,0,1.0,0,1.6646535396575928,153,0.0,1
153,0,1.0,0,1.2496576309204102,154,0.0,1
154,0,0.0,0,1.7866520881652832,155,0.0,1
155,0,0.0,0,1.4076569080352783,156,0.0,1
156,0,1.0,0,1.6656535863876343,157,1.0,1
157,0,0.0,0,1.6476538181304932,158,0.0,1
158,0,1.0,0,1.9076504707336426,159,0.0,1
159,0,1.0,0,1.4596562385559082,160,1.0,1
160,0,1.0,0,1.7416526079177856,161,1.0,1
161,0,1.0,0,1.7166528701782227,162,1.0,1
162,0,1.0,0,1.2976577281951904,163,1.0,1
163,0,1.0,0,1.589654564857483,164,1.0,1
164,0,0.0,0,1.7826521396636963,165,0.0,1
165,0,0.0,0,1.1876574754714966,166,0.0,1
166,0,1.0,0,1.3146576881408691,167,1.0,1
167,0,1.0,0,1.2236576080322266,168,1.0,1
168,0,0.0,0,1.9456499814987183,169,0.0,1
169,0,1.0,0,1.4816559553146362,170,1.0,1
170,0,1.0,0,1.6376539468765259,171,1.0,1
171,0,1.0,0,1.3126577138900757,172,1.0,1
172,0,1.0,0,1.3936570882797241,173,1.0,1
173,0,1.0,0,1.7056530714035034,174,1.0,1
174,0,1.0,0,1.6246540546417236,175,0.0,1
175,0,1.0,0,1.420656681060791,176,1.0,1
176,0,1.0,0,1.226657509803772,177,1.0,1
177,0,1.0,0,1.7756521701812744,178,1.0,1
178,0,1.0,0,1.5106555223464966,179,1.0,1
179,0,0.0,0,1.3166577816009521,180,0.0,1
180,0,1.0,0,1.6416538953781128,181,1.0,1
181,0,1.0,0,1.2836576700210571,182,1.0,1
182,0,1.0,0,1.3736573457717896,183,1.0,1
183,0,1.0,0,1.3646574020385742,184,0.0,1
184,0,0.0,0,1.581654667854309,185,0.0,1
185,0,1.0,0,1.5036556720733643,186,0.0,1
186,0,0.0,0,1.838651418685913,187,0.0,1
187,0,0.0,0,2.178652286529541,188,0.0,1
188,0,1.0,0,1.3956570625305176,189,1.0,1
189,0,1.0,0,1.3286577463150024,190,1.0,1
190,0,1.0,0,1.534655213356018,191,1.0,1
191,0,0.0,0,1.4786559343338013,192,0.0,1
192,0,1.0,0,1.4856559038162231,193,1.0,1
193,0,1.0,0,1.681653380393982,194,1.0,1
194,0,1.0,0,1.655653715133667,195,1.0,1
195,0,1.0,0,1.2836576700210571,196,1.0,1
196,0,1.0,0,1.3446576595306396,197,1.0,1
197,0,1.0,0,1.7796521186828613,198,1.0,1
198,0,1.0,0,1.3926570415496826,199,0.0,1
199,0,0.0,0,1.698653221130371,200,0.0,1
200,0,1.0,0,1.5206553936004639,201,1.0,1
201,0,1.0,0,1.7346527576446533,202,1.0,1
202,0,1.0,0,1.2516576051712036,203,0.0,1
203,0,1.0,0,2.116649627685547,204,0.0,1
204,0,1.0,0,1.8946506977081299,205,1.0,1
205,0,1.0,0,1.6006543636322021,206,1.0,1
206,0,1.0,0,1.2456575632095337,207,1.0,1
207,0,0.0,0,1.5876545906066895,208,1.0,1
208,0,1.0,0,1.449656367301941,209,1.0,1
209,0,0.0,0,2.066648483276367,210,0.0,1
210,0,1.0,0,2.144650936126709,211,1.0,1
211,0,0.0,0,1.8206515312194824,212,1.0,1
212,0,1.0,0,1.9236502647399902,213,1.0,1
213,0,1.0,0,1.9496499300003052,214,1.0,1
214,0,0.0,0,2.2116539478302,215,0.0,1
215,0,1.0,0,1.4626561403274536,216,1.0,1
216,0,1.0,0,1.3856571912765503,217,1.0,1
217,0,1.0,0,1.3366577625274658,218,1.0,1
218,0,0.0,0,1.5546549558639526,219,0.0,1
219,0,0.0,0,1.263657569885254,220,0.0,1
220,0,1.0,0,1.3636574745178223,221,1.0,1
221,0,1.0,0,1.357657551765442,222,1.0,1
222,0,1.0,0,1.3046576976776123,223,1.0,1
223,0,1.0,0,1.326657772064209,224,1.0,1
224,0,0.0,0,1.7306528091430664,225,0.0,1
225,0,1.0,0,1.4106568098068237,226,1.0,1
226,0,1.0,0,1.4156568050384521,227,1.0,1
227,0,1.0,0,1.3066576719284058,228,1.0,1
228,0,1.0,0,1.4286565780639648,229,1.0,1
229,0,1.0,0,1.3036577701568604,230,1.0,1
230,0,1.0,0,1.706653118133545,231,1.0,1
231,0,1.0,0,1.259657621383667,232,0.0,1
232,0,0.0,0,1.7596523761749268,233,0.0,1
233,0,0.0,0,1.4836559295654297,234,1.0,1
234,0,0.0,0,1.3136577606201172,235,0.0,1
235,0,0.0,0,1.5176554918289185,236,0.0,1
236,0,0.0,0,1.198657512664795,237,0.0,1
237,0,1.0,0,2.15165114402771,238,1.0,1
238,0,0.0,0,1.7396526336669922,239,0.0,1
239,0,1.0,0,1.3096576929092407,240,1.0,1
240,0,1.0,0,1.8116517066955566,241,1.0,1
241,0,1.0,0,1.4336565732955933,242,1.0,1
242,0,1.0,0,1.3396577835083008,243,0.0,1
243,0,1.0,0,1.5786546468734741,244,1.0,1
244,0,0.0,0,1.6426539421081543,245,0.0,1
245,0,1.0,0,1.5806546211242676,246,1.0,1
246,0,1.0,0,1.6656535863876343,247,1.0,1
247,0,1.0,0,1.614654302597046,248,1.0,1
248,0,1.0,0,1.4306565523147583,249,0.0,1
249,0,1.0,0,1.7896519899368286,250,0.0,1
250,0,0.0,0,1.796651840209961,251,1.0,1
251,0,0.0,0,1.2646576166152954,252,0.0,1
252,0,0.0,0,1.6056543588638306,253,0.0,1
253,0,1.0,0,1.6446537971496582,254,1.0,1
254,0,1.0,0,1.7246527671813965,255,1.0,1
255,0,1.0,0,1.6896532773971558,256,1.0,1
256,0,1.0,0,1.4926557540893555,257,1.0,1
257,0,1.0,0,1.423656702041626,258,0.0,1
258,0,1.0,0,1.931650161743164,259,1.0,1
259,0,1.0,0,1.3026577234268188,260,1.0,1
260,0,1.0,0,1.2616575956344604,261,0.0,1
261,0,0.0,0,1.6786534786224365,262,0.0,1
262,0,0.0,0,1.7816520929336548,263,0.0,1
263,0,0.0,0,1.394657015800476,264,1.0,1
264,0,0.0,0,1.6446537971496582,265,0.0,1
265,0,1.0,0,2.154651165008545,266,0.0,1
266,0,1.0,0,1.7806520462036133,267,1.0,1
267,0,1.0,0,1.3846571445465088,268,1.0,1
268,0,1.0,0,1.7686522006988525,269,0.0,1
269,0,0.0,0,1.445656418800354,270,1.0,1
270,0,0.0,0,1.9076504707336426,271,0.0,1
271,0,0.0,0,1.9336501359939575,272,0.0,1
272,0,0.0,0,1.494655728340149,273,0.0,1
273,0,0.0,0,1.607654333114624,274,0.0,1
274,0,1.0,0,1.3086577653884888,275,1.0,1
275,0,0.0,0,1.6686534881591797,276,0.0,1
276,0,1.0,0,2.0526485443115234,277,1.0,1
277,0,1.0,0,1.6856533288955688,278,1.0,1
278,0,1.0,0,1.3316577672958374,279,1.0,1
279,0,1.0,0,1.3966569900512695,280,1.0,1
280,0,1.0,0,1.7176529169082642,281,1.0,1
281,0,1.0,0,1.696653127670288,282,1.0,1
282,0,1.0,0,1.7406525611877441,283,1.0,1
283,0,1.0,0,1.3896571397781372,284,1.0,1
284,0,1.0,0,1.3836572170257568,285,0.0,1
285,0,0.0,0,1.4796559810638428,286,0.0,1
286,0,1.0,0,1.5466550588607788,287,0.0,1
287,0,1.0,0,1.2996577024459839,288,1.0,1
288,0,1.0,0,1.4286565780639648,289,1.0,1
289,0,1.0,0,1.5396552085876465,290,1.0,1
290,0,0.0,0,1.4856559038162231,291,0.0,1
291,0,1.0,0,1.5226553678512573,292,1.0,1
292,0,1.0,0,1.8646509647369385,293,1.0,1
293,0,1.0,0,1.4216567277908325,294,1.0,1
294,0,1.0,0,1.349657654762268,295,1.0,1
295,0,1.0,0,1.353657603263855,296,0.0,1
296,0,1.0,0,1.4916558265686035,297,1.0,1
297,0,1.0,0,1.4186567068099976,298,1.0,1
298,0,0.0,0,1.604654312133789,299,1.0,1
299,0,1.0,0,1.5216554403305054,300,1.0,1
300,0,0.0,0,1.3386577367782593,301,0.0,1
301,0,1.0,0,1.8526511192321777,302,1.0,1
302,0,1.0,0,1.3656574487686157,303,1.0,1
303,0,1.0,0,1.3676574230194092,304,1.0,1
304,0,1.0,0,1.5786546468734741,305,1.0,1
305,0,1.0,0,1.6756534576416016,306,0.0,1
306,0,1.0,0,1.8986506462097168,307,1.0,1
307,0,1.0,0,1.3226577043533325,308,1.0,1
308,0,1.0,0,1.5736547708511353,309,0.0,1
309,0,0.0,0,1.25565767288208,310,0.0,1
310,0,0.0,0,1.516655445098877,311,0.0,1
311,0,1.0,0,1.6616536378860474,312,1.0,1
312,0,0.0,0,1.3446576595306396,313,0.0,1
313,0,0.0,0,1.6006543636322021,314,0.0,1
314,0,1.0,0,1.9606497287750244,315,1.0,1
315,0,1.0,0,1.5326552391052246,316,1.0,1
316,0,1.0,0,1.3026577234268188,317,1.0,1
317,0,1.0,0,1.2946577072143555,318,1.0,1
318,0,1.0,0,1.5586549043655396,319,1.0,1
319,0,1.0,0,1.5696548223495483,320,1.0,1
320,0,1.0,0,1.327657699584961,321,1.0,1
321,0,1.0,0,1.3636574745178223,322,1.0,1
322,0,1.0,0,2.3366599082946777,323,1.0,1
323,0,1.0,0,1.401656985282898,324,1.0,1
324,0,1.0,0,1.840651273727417,325,1.0,1
325,0,1.0,0,1.3416577577590942,326,0.0,1
326,0,1.0,0,2.112649440765381,327,1.0,1
327,0,1.0,0,1.471656084060669,328,0.0,1
328,0,1.0,0,1.5806546211242676,329,1.0,1
329,0,0.0,0,1.581654667854309,330,0.0,1
330,0,0.0,0,1.5486550331115723,331,0.0,1
331,0,1.0,0,1.6186542510986328,332,0.0,1
332,0,0.0,0,1.2956576347351074,333,0.0,1
333,0,1.0,0,2.123649835586548,334,1.0,1
334,0,1.0,0,1.4566562175750732,335,1.0,1
335,0,1.0,0,1.7336527109146118,336,1.0,1
336,0,1.0,0,1.3446576595306396,337,0.0,1
337,0,0.0,0,1.9686496257781982,338,0.0,1
338,0,0.0,0,1.4126567840576172,339,0.0,1
339,0,0.0,0,1.673653483390808,340,0.0,1
340,0,1.0,0,1.9746496677398682,341,1.0,1
341,0,1.0,0,1.5676548480987549,342,1.0,1
342,0,1.0,0,1.2886576652526855,343,1.0,1
343,0,0.0,0,1.7776521444320679,344,0.0,1
344,0,1.0,0,1.7326526641845703,345,1.0,1
345,0,1.0,0,1.3086577653884888,346,1.0,1
346,0,1.0,0,1.3406577110290527,347,1.0,1
347,0,1.0,0,1.5976544618606567,348,1.0,1
348,0,1.0,0,1.3166577816009521,349,0.0,1
349,0,0.0,0,1.5876545906066895,350,0.0,1
350,0,1.0,0,1.4626561403274536,351,1.0,1
351,0,1.0,0,1.4746559858322144,352,1.0,1
352,0,0.0,0,1.3706573247909546,353,0.0,1
353,0,1.0,0,1.5626548528671265,354,1.0,1
354,0,0.0,0,1.5756547451019287,355,0.0,1
355,0,0.0,0,1.3406577110290527,356,0.0,1
356,0,1.0,0,1.5616549253463745,357,1.0,1
357,0,0.0,0,1.6236541271209717,358,0.0,1
358,0,1.0,0,1.7456525564193726,359,1.0,1
359,0,1.0,0,1.4356565475463867,360,0.0,1
360,0,1.0,0,1.6286540031433105,361,1.0,1
361,0,0.0,0,1.3116576671600342,362,0.0,1
362,0,1.0,0,1.2706576585769653,363,1.0,1
363,0,1.0,0,1.3786572217941284,364,1.0,1
364,0,1.0,0,1.326657772064209,365,1.0,1
365,0,1.0,0,1.3346577882766724,366,1.0,1
366,0,1.0,0,1.3516576290130615,367,1.0,1
367,0,0.0,0,1.7766520977020264,368,0.0,1
368,0,1.0,0,1.319657802581787,369,1.0,1
369,0,1.0,0,1.6926531791687012,370,1.0,1
370,0,1.0,0,1.511655569076538,371,1.0,1
371,0,1.0,0,1.6406538486480713,372,1.0,1
372,0,1.0,0,1.2806576490402222,373,1.0,1
373,0,1.0,0,1.796651840209961,374,1.0,1
374,0,1.0,0,1.3846571445465088,375,0.0,1
375,0,1.0,0,1.7156529426574707,376,0.0,1
376,0,0.0,0,1.5276553630828857,377,0.0,1
377,0,0.0,0,2.109649181365967,378,1.0,1
378,0,0.0,0,1.3596575260162354,379,0.0,1
379,0,0.0,0,2.169651985168457,380,0.0,1
380,0,0.0,0,2.2126541137695312,381,0.0,1
381,0,1.0,0,1.5446550846099854,382,1.0,1
382,0,1.0,0,1.9636497497558594,383,1.0,1
383,0,1.0,0,1.6286540031433105,384,1.0,1
384,0,1.0,0,1.5976544618606567,385,0.0,1
385,0,1.0,0,1.2996577024459839,386,1.0,1
386,0,1.0,0,1.4056569337844849,387,1.0,1
387,0,1.0,0,1.3116576671600342,388,1.0,1
388,0,0.0,0,1.5446550846099854,389,0.0,1
389,0,1.0,0,1.7416526079177856,390,1.0,1
390,0,1.0,0,1.6096543073654175,391,1.0,1
391,0,1.0,0,1.6316540241241455,392,1.0,1
392,0,1.0,0,1.2546576261520386,393,1.0,1
393,0,1.0,0,1.3186577558517456,394,1.0,1
394,0,1.0,0,1.2576576471328735,395,1.0,1
395,0,1.0,0,1.5836546421051025,396,1.0,1
396,0,1.0,0,1.5476551055908203,397,1.0,1
397,0,0.0,0,1.8196516036987305,398,0.0,1
398,0,1.0,0,1.2786576747894287,399,0.0,1
399,0,1.0,0,1.4606561660766602,400,0.0,1
400,0,1.0,0,1.330657720565796,401,0.0,1
401,0,0.0,0,1.4886558055877686,402,1.0,1
402,0,0.0,0,1.5496550798416138,403,0.0,1
403,0,1.0,0,1.3696573972702026,404,1.0,1
404,0,1.0,0,1.6726534366607666,405,1.0,1
405,0,1.0,0,1.423656702041626,406,1.0,1
406,0,0.0,0,1.5946545600891113,407,0.0,1
407,0,0.0,0,1.3786572217941284,408,0.0,1
408,0,1.0,0,1.376657247543335,409,1.0,1
409,0,1.0,0,1.2846577167510986,410,1.0,1
410,0,1.0,0,1.6196541786193848,411,0.0,1
411,0,0.0,0,1.9116504192352295,412,0.0,1
412,0,1.0,0,1.4596562385559082,413,1.0,1
413,0,1.0,0,1.5206553936004639,414,0.0,1
414,0,0.0,0,1.4476563930511475,415,0.0,1
415,0,1.0,0,1.8276515007019043,416,0.0,1
416,0,1.0,0,1.4956557750701904,417,1.0,1
417,0,1.0,0,1.3656574487686157,418,0.0,1
418,0,0.0,0,1.6436538696289062,419,0.0,1
419,0,0.0,0,1.5436551570892334,420,0.0,1
420,0,0.0,0,1.2816576957702637,421,0.0,1
421,0,0.0,0,1.3646574020385742,422,0.0,1
422,0,1.0,0,1.2336575984954834,423,1.0,1
423,0,0.0,0,1.357657551765442,424,0.0,1
424,0,1.0,0,1.4886558055877686,425,0.0,1
425,0,1.0,0,1.9426500797271729,426,0.0,1
426,0,1.0,0,1.4256566762924194,427,1.0,1
427,0,1.0,0,2.029648780822754,428,1.0,1
428,0,1.0,0,1.6056543588638306,429,1.0,1
429,0,1.0,0,1.938650131225586,430,1.0,1
430,0,1.0,0,1.6876533031463623,431,1.0,1
431,0,1.0,0,1.9946494102478027,432,1.0,1
432,0,1.0,0,1.394657015800476,433,1.0,1
433,0,1.0,0,1.9966492652893066,434,0.0,1
434,0,0.0,0,1.7126529216766357,435,1.0,1
435,0,0.0,0,1.4376565217971802,436,0.0,1
436,0,0.0,0,1.5726547241210938,437,0.0,1
437,0,1.0,0,2.0986485481262207,438,1.0,1
438,0,0.0,0,1.8286514282226562,439,0.0,1
439,0,1.0,0,1.6686534881591797,440,1.0,1
440,0,1.0,0,1.606654405593872,441,1.0,1
441,0,0.0,0,1.3586574792861938,442,0.0,1
442,0,1.0,0,1.537655234336853,443,1.0,1
443,0,1.0,0,1.5796546936035156,444,0.0,1
444,0,0.0,0,2.0176491737365723,445,0.0,1
445,0,1.0,0,1.346657633781433,446,1.0,1
446,0,1.0,0,1.8526511192321777,447,1.0,1
447,0,1.0,0,1.7166528701782227,448,1.0,1
448,0,1.0,0,1.5066555738449097,449,1.0,1
449,0,1.0,0,1.3476576805114746,450,1.0,1
450,0,1.0,0,1.5796546936035156,451,1.0,1
451,0,1.0,0,1.8586511611938477,452,1.0,1
452,0,1.0,0,1.3366577625274658,453,1.0,1
453,0,1.0,0,1.5576549768447876,454,1.0,1
454,0,1.0,0,1.4476563930511475,455,1.0,1
455,0,0.0,0,1.794651985168457,456,1.0,1
456,0,0.0,0,1.5086555480957031,457,0.0,1
457,0,1.0,0,1.3186577558517456,458,1.0,1
458,0,0.0,0,1.4536563158035278,459,0.0,1
459,0,1.0,0,1.2586575746536255,460,1.0,1
460,0,1.0,0,1.6366539001464844,461,1.0,1
461,0,1.0,0,1.5276553630828857,462,1.0,1
462,0,1.0,0,1.3966569900512695,463,1.0,1
463,0,1.0,0,1.7906520366668701,464,0.0,1
464,0,1.0,0,1.7666523456573486,465,1.0,1
465,0,1.0,0,1.9216502904891968,466,1.0,1
466,0,1.0,0,1.3406577110290527,467,0.0,1
467,0,0.0,0,1.464656114578247,468,1.0,1
468,0,0.0,0,1.794651985168457,469,0.0,1
469,0,0.0,0,2.0996487140655518,470,0.0,1
470,0,1.0,0,1.8036518096923828,471,1.0,1
471,0,1.0,0,1.861651062965393,472,1.0,1
472,0,1.0,0,1.4926557540893555,473,1.0,1
473,0,1.0,0,1.3516576290130615,474,1.0,1
474,0,0.0,0,1.65165376663208,475,1.0,1
475,0,1.0,0,1.7056530714035034,476,1.0,1
476,0,0.0,0,1.286657691001892,477,0.0,1
477,0,0.0,0,1.4436564445495605,478,0.0,1
478,0,1.0,0,1.8926506042480469,479,0.0,1
479,0,1.0,0,1.471656084060669,480,1.0,1
480,0,1.0,0,1.292657732963562,481,1.0,1
481,0,1.0,0,1.4516563415527344,482,1.0,1
482,0,1.0,0,1.3686573505401611,483,1.0,1
483,0,1.0,0,1.5286552906036377,484,1.0,1
484,0,1.0,0,1.6666536331176758,485,1.0,1
485,0,1.0,0,1.4736560583114624,486,1.0,1
486,0,1.0,0,1.7906520366668701,487,1.0,1
487,0,1.0,0,1.7906520366668701,488,1.0,1
488,0,1.0,0,1.4506562948226929,489,1.0,1
489,0,1.0,0,1.9216502904891968,490,1.0,1
490,0,1.0,0,1.606654405593872,491,1.0,1
491,0,1.0,0,1.3446576595306396,492,1.0,1
492,0,1.0,0,1.442656397819519,493,1.0,1
493,0,1.0,0,1.6206541061401367,494,1.0,1
494,0,1.0,0,1.9946494102478027,495,1.0,1
495,0,1.0,0,1.329657793045044,496,0.0,1
496,0,1.0,0,1.8516511917114258,497,0.0,1
497,0,0.0,0,1.6746535301208496,498,0.0,1
498,0,1.0,0,1.4506562948226929,499,0.0,1
499,0,0.0,0,1.7786521911621094,500,1.0,1
500,0,1.0,1,1.9756495952606201,1,1.0,1
501,0,0.0,1,1.6536537408828735,2,1.0,1
502,0,0.0,1,1.5536550283432007,3,0.0,1
503,0,1.0,1,1.467656135559082,4,1.0,1
504,0,1.0,1,1.353657603263855,5,1.0,1
505,0,1.0,1,1.3896571397781372,6,1.0,1
506,0,1.0,1,1.7856520414352417,7,1.0,1
507,0,1.0,1,1.4656561613082886,8,1.0,1
508,0,1.0,1,2.0046491622924805,9,0.0,1
509,0,0.0,1,1.6056543588638306,10,1.0,1
510,0,0.0,1,1.2076575756072998,11,0.0,1
511,0,0.0,1,1.5076556205749512,12,1.0,1
512,0,0.0,1,1.560654878616333,13,1.0,1
513,0,0.0,1,1.2956576347351074,14,0.0,1
514,0,0.0,1,1.449656367301941,15,0.0,1
515,0,1.0,1,1.7266528606414795,16,1.0,1
516,0,1.0,1,1.3316577672958374,17,0.0,1
517,0,1.0,1,1.4976557493209839,18,1.0,1
518,0,1.0,1,1.7816520929336548,19,1.0,1
519,0,1.0,1,1.5916545391082764,20,0.0,1
520,0,0.0,1,2.036648750305176,21,0.0,1
521,0,1.0,1,1.704653024673462,22,1.0,1
522,0,1.0,1,1.534655213356018,23,0.0,1
523,0,0.0,1,1.754652500152588,24,0.0,1
524,0,0.0,1,1.4036569595336914,25,0.0,1
525,0,1.0,1,1.8736509084701538,26,1.0,1
526,0,1.0,1,1.4146567583084106,27,1.0,1
527,0,1.0,1,1.472656011581421,28,1.0,1
528,0,1.0,1,1.9966492652893066,29,0.0,1
529,0,1.0,1,1.9146504402160645,30,1.0,1
530,0,1.0,1,1.4066568613052368,31,1.0,1
531,0,0.0,1,1.4556562900543213,32,0.0,1
532,0,1.0,1,1.7276527881622314,33,1.0,1
533,0,0.0,1,1.3696573972702026,34,0.0,1
534,0,0.0,1,1.2166575193405151,35,1.0,1
535,0,0.0,1,1.3186577558517456,36,0.0,1
536,0,0.0,1,1.253657579421997,37,0.0,1
537,0,1.0,1,1.8626511096954346,38,1.0,1
538,0,1.0,1,1.4666560888290405,39,0.0,1
539,0,0.0,1,1.5616549253463745,40,0.0,1
540,0,1.0,1,1.611654281616211,41,0.0,1
541,0,0.0,1,1.3476576805114746,42,1.0,1
542,0,0.0,1,1.560654878616333,43,0.0,1
543,0,0.0,1,1.6606535911560059,44,0.0,1
544,0,0.0,1,1.286657691001892,45,0.0,1
545,0,0.0,1,1.5046555995941162,46,1.0,1
546,0,1.0,1,2.0046491622924805,47,0.0,1
547,0,0.0,1,1.8546512126922607,48,0.0,1
548,0,0.0,1,1.3086577653884888,49,0.0,1
549,0,0.0,1,1.8316514492034912,50,1.0,1
550,0,0.0,1,1.612654209136963,51,1.0,1
551,0,0.0,1,1.56465482711792,52,0.0,1
552,0,0.0,1,1.9696496725082397,53,1.0,1
553,0,0.0,1,1.320657730102539,54,1.0,1
554,0,0.0,1,1.152657389640808,55,1.0,1
555,0,0.0,1,1.9406499862670898,56,0.0,1
556,0,1.0,1,1.8066518306732178,57,1.0,1
557,0,1.0,1,2.121649742126465,58,1.0,1
558,0,1.0,1,1.4356565475463867,59,1.0,1
559,0,0.0,1,1.5916545391082764,60,0.0,1
560,0,1.0,1,1.4586561918258667,61,0.0,1
561,0,0.0,1,2.032648801803589,62,0.0,1
562,0,0.0,1,1.9426500797271729,63,0.0,1
563,0,0.0,1,1.5276553630828857,64,1.0,1
564,0,0.0,1,1.9126503467559814,65,1.0,1
565,0,0.0,1,1.2746576070785522,66,0.0,1
566,0,0.0,1,1.614654302597046,67,1.0,1
567,0,0.0,1,1.8206515312194824,68,1.0,1
568,0,0.0,1,1.6276540756225586,69,0.0,1
569,0,1.0,1,1.844651222229004,70,1.0,1
570,0,1.0,1,1.9636497497558594,71,1.0,1
571,0,1.0,1,1.932650089263916,72,1.0,1
572,0,1.0,1,1.516655445098877,73,1.0,1
573,0,1.0,1,1.610654354095459,74,1.0,1
574,0,1.0,1,1.2616575956344604,75,0.0,1
575,0,0.0,1,1.3026577234268188,76,0.0,1
576,0,1.0,1,1.9506499767303467,77,1.0,1
577,0,1.0,1,1.424656629562378,78,1.0,1
578,0,1.0,1,1.21965754032135,79,1.0,1
579,0,1.0,1,1.319657802581787,80,0.0,1
580,0,1.0,1,1.6656535863876343,81,0.0,1
581,0,1.0,1,1.7716522216796875,82,1.0,1
582,0,1.0,1,1.840651273727417,83,1.0,1
583,0,1.0,1,1.8246514797210693,84,1.0,1
584,0,1.0,1,1.5086555480957031,85,1.0,1
585,0,0.0,1,1.3646574020385742,86,0.0,1
586,0,1.0,1,1.490655779838562,87,1.0,1
587,0,1.0,1,1.9026505947113037,88,1.0,1
588,0,1.0,1,1.6386539936065674,89,1.0,1
589,0,1.0,1,1.2836576700210571,90,1.0,1
590,0,0.0,1,1.2586575746536255,91,0.0,1
591,0,1.0,1,1.5446550846099854,92,1.0,1
592,0,1.0,1,1.354657530784607,93,1.0,1
593,0,0.0,1,1.4966557025909424,94,0.0,1
594,0,1.0,1,1.5526549816131592,95,1.0,1
595,0,1.0,1,1.698653221130371,96,1.0,1
596,0,1.0,1,1.250657558441162,97,1.0,1
597,0,1.0,1,1.589654564857483,98,1.0,1
598,0,1.0,1,1.3706573247909546,99,1.0,1
599,0,1.0,1,1.329657793045044,100,1.0,1
600,0,0.0,1,1.794651985168457,101,0.0,1
601,0,1.0,1,1.3936570882797241,102,0.0,1
602,0,1.0,1,1.2406575679779053,103,0.0,1
603,0,1.0,1,1.4486563205718994,104,1.0,1
604,0,1.0,1,1.2816576957702637,105,1.0,1
605,0,0.0,1,1.560654878616333,106,0.0,1
606,0,1.0,1,1.8976505994796753,107,0.0,1
607,0,1.0,1,1.394657015800476,108,1.0,1
608,0,1.0,1,1.446656346321106,109,1.0,1
609,0,1.0,1,1.582654595375061,110,1.0,1
610,0,0.0,1,2.422663688659668,111,1.0,1
611,0,1.0,1,1.5046555995941162,112,1.0,1
612,0,1.0,1,1.9256502389907837,113,0.0,1
613,0,0.0,1,1.2006574869155884,114,0.0,1
614,0,1.0,1,1.6476538181304932,115,1.0,1
615,0,1.0,1,1.746652603149414,116,1.0,1
616,0,1.0,1,1.401656985282898,117,0.0,1
617,0,0.0,1,1.6466538906097412,118,0.0,1
618,0,0.0,1,1.7336527109146118,119,0.0,1
619,0,0.0,1,1.3926570415496826,120,1.0,1
620,0,0.0,1,1.6166541576385498,121,1.0,1
621,0,0.0,1,1.721652865409851,122,1.0,1
622,0,0.0,1,1.4356565475463867,123,1.0,1
623,0,0.0,1,1.4776560068130493,124,0.0,1
624,0,1.0,1,1.8426513671875,125,1.0,1
625,0,1.0,1,1.5336552858352661,126,1.0,1
626,0,1.0,1,1.7376526594161987,127,0.0,1
627,0,0.0,1,1.468656063079834,128,1.0,1
628,0,0.0,1,1.3526575565338135,129,0.0,1
629,0,0.0,1,2.182652473449707,130,0.0,1
630,0,1.0,1,1.4846558570861816,131,1.0,1
631,0,0.0,1,1.468656063079834,132,0.0,1
632,0,1.0,1,1.4386564493179321,133,1.0,1
633,0,1.0,1,1.9686496257781982,134,1.0,1
634,0,1.0,1,1.3616575002670288,135,0.0,1
635,0,1.0,1,1.9036505222320557,136,0.0,1
636,0,1.0,1,1.4856559038162231,137,1.0,1
637,0,1.0,1,1.5036556720733643,138,1.0,1
638,0,1.0,1,1.585654616355896,139,0.0,1
639,0,0.0,1,1.6416538953781128,140,1.0,1
640,0,0.0,1,1.4626561403274536,141,0.0,1
641,0,1.0,1,1.725652813911438,142,1.0,1
642,0,1.0,1,1.4576562643051147,143,1.0,1
643,0,1.0,1,1.376657247543335,144,1.0,1
644,0,0.0,1,1.4156568050384521,145,0.0,1
645,0,1.0,1,1.3336577415466309,146,0.0,1
646,0,0.0,1,2.035648822784424,147,0.0,1
647,0,0.0,1,1.751652479171753,148,0.0,1
648,0,1.0,1,1.7206528186798096,149,1.0,1
649,0,0.0,1,1.346657633781433,150,1.0,1
650,0,1.0,1,2.075648307800293,151,0.0,1
651,0,0.0,1,1.1756575107574463,152,0.0,1
652,0,0.0,1,1.673653483390808,153,1.0,1
653,0,0.0,1,1.5246553421020508,154,0.0,1
654,0,1.0,1,1.6256541013717651,155,1.0,1
655,0,1.0,1,1.3656574487686157,156,1.0,1
656,0,1.0,1,1.3936570882797241,157,1.0,1
657,0,1.0,1,1.5996544361114502,158,1.0,1
658,0,1.0,1,1.5446550846099854,159,1.0,1
659,0,1.0,1,1.4976557493209839,160,0.0,1
660,0,1.0,1,1.9066505432128906,161,1.0,1
661,0,0.0,1,1.265657663345337,162,0.0,1
662,0,1.0,1,1.2856576442718506,163,0.0,1
663,0,0.0,1,1.2826576232910156,164,0.0,1
664,0,1.0,1,2.176652431488037,165,1.0,1
665,0,1.0,1,1.4116568565368652,166,1.0,1
666,0,1.0,1,1.629654049873352,167,0.0,1
667,0,1.0,1,1.659653663635254,168,1.0,1
668,0,1.0,1,1.35065758228302,169,0.0,1
669,0,1.0,1,1.6226541996002197,170,1.0,1
670,0,1.0,1,1.2686576843261719,171,1.0,1
671,0,1.0,1,1.6866533756256104,172,1.0,1
672,0,1.0,1,1.8976505994796753,173,0.0,1
673,0,1.0,1,1.6756534576416016,174,1.0,1
674,0,1.0,1,1.511655569076538,175,1.0,1
675,0,1.0,1,1.8056517839431763,176,0.0,1
676,0,0.0,1,1.582654595375061,177,1.0,1
677,0,0.0,1,1.3116576671600342,178,1.0,1
678,0,0.0,1,1.979649543762207,179,0.0,1
679,0,0.0,1,1.376657247543335,180,1.0,1
680,0,0.0,1,1.8086516857147217,181,1.0,1
681,0,0.0,1,1.3256577253341675,182,0.0,1
682,0,0.0,1,1.5096555948257446,183,0.0,1
683,0,0.0,1,1.3316577672958374,184,0.0,1
684,0,0.0,1,1.2366576194763184,185,0.0,1
685,0,1.0,1,1.3046576976776123,186,1.0,1
686,0,1.0,1,1.8236515522003174,187,0.0,1
687,0,0.0,1,1.7556524276733398,188,1.0,1
688,0,0.0,1,1.2496576309204102,189,0.0,1
689,0,1.0,1,1.2756576538085938,190,1.0,1
690,0,1.0,1,1.3686573505401611,191,1.0,1
691,0,0.0,1,1.265657663345337,192,0.0,1
692,0,1.0,1,1.7196528911590576,193,0.0,1
693,0,1.0,1,1.6246540546417236,194,1.0,1
694,0,1.0,1,1.289657711982727,195,1.0,1
695,0,1.0,1,1.472656011581421,196,1.0,1
696,0,0.0,1,1.3676574230194092,197,1.0,1
697,0,1.0,1,1.2136574983596802,198,1.0,1
698,0,1.0,1,1.7786521911621094,199,1.0,1
699,0,0.0,1,1.5076556205749512,200,0.0,1
700,0,0.0,1,1.4506562948226929,201,0.0,1
701,0,1.0,1,1.4316565990447998,202,0.0,1
702,0,0.0,1,1.3786572217941284,203,0.0,1
703,0,0.0,1,1.3016576766967773,204,1.0,1
704,0,0.0,1,2.076648235321045,205,0.0,1
705,0,0.0,1,2.030648946762085,206,0.0,1
706,0,1.0,1,2.160651683807373,207,1.0,1
707,0,1.0,1,1.589654564857483,208,0.0,1
708,0,1.0,1,1.5536550283432007,209,1.0,1
709,0,1.0,1,1.7286527156829834,210,1.0,1
710,0,0.0,1,1.2426575422286987,211,0.0,1
711,0,1.0,1,1.2886576652526855,212,1.0,1
712,0,0.0,1,1.7836520671844482,213,0.0,1
713,0,1.0,1,1.7176529169082642,214,1.0,1
714,0,0.0,1,1.4596562385559082,215,1.0,1
715,0,0.0,1,1.589654564857483,216,0.0,1
716,0,1.0,1,1.6186542510986328,217,1.0,1
717,0,1.0,1,1.6676535606384277,218,1.0,1
718,0,0.0,1,1.3456577062606812,219,1.0,1
719,0,1.0,1,1.323657751083374,220,1.0,1
720,0,1.0,1,1.5066555738449097,221,1.0,1
721,0,1.0,1,1.4296566247940063,222,1.0,1
722,0,1.0,1,1.323657751083374,223,1.0,1
723,0,1.0,1,1.538655161857605,224,1.0,1
724,0,0.0,1,1.7776521444320679,225,0.0,1
725,0,1.0,1,1.5736547708511353,226,1.0,1
726,0,1.0,1,1.9426500797271729,227,1.0,1
727,0,1.0,1,1.3066576719284058,228,1.0,1
728,0,1.0,1,1.4076569080352783,229,1.0,1
729,0,1.0,1,1.2526576519012451,230,1.0,1
730,0,1.0,1,1.8056517839431763,231,1.0,1
731,0,1.0,1,1.7626523971557617,232,1.0,1
732,0,1.0,1,1.6186542510986328,233,0.0,1
733,0,0.0,1,1.3866571187973022,234,0.0,1
734,0,1.0,1,1.9106504917144775,235,1.0,1
735,0,1.0,1,1.7636523246765137,236,1.0,1
736,0,1.0,1,1.2726576328277588,237,1.0,1
737,0,1.0,1,1.6726534366607666,238,1.0,1
738,0,1.0,1,1.844651222229004,239,1.0,1
739,0,1.0,1,1.6786534786224365,240,1.0,1
740,0,0.0,1,1.253657579421997,241,0.0,1
741,0,0.0,1,1.3516576290130615,242,0.0,1
742,0,1.0,1,1.5476551055908203,243,0.0,1
743,0,1.0,1,1.5546549558639526,244,0.0,1
744,0,0.0,1,1.3016576766967773,245,1.0,1
745,0,0.0,1,1.2686576843261719,246,1.0,1
746,0,0.0,1,1.2446576356887817,247,1.0,1
747,0,0.0,1,1.4056569337844849,248,0.0,1
748,0,1.0,1,2.0876481533050537,249,1.0,1
749,0,1.0,1,1.3026577234268188,250,1.0,1
750,0,1.0,1,1.2176575660705566,251,1.0,1
751,0,1.0,1,1.486655831336975,252,1.0,1
752,0,1.0,1,1.6266541481018066,253,1.0,1
753,0,1.0,1,1.2526576519012451,254,0.0,1
754,0,0.0,1,1.7676522731781006,255,0.0,1
755,0,0.0,1,1.327657699584961,256,0.0,1
756,0,0.0,1,1.700653076171875,257,0.0,1
757,0,1.0,1,2.023648977279663,258,1.0,1
758,0,1.0,1,1.6626536846160889,259,0.0,1
759,0,0.0,1,1.4286565780639648,260,0.0,1
760,0,1.0,1,1.2956576347351074,261,1.0,1
761,0,0.0,1,1.18965744972229,262,0.0,1
762,0,1.0,1,1.9426500797271729,263,0.0,1
763,0,0.0,1,1.8156516551971436,264,0.0,1
764,0,0.0,1,1.629654049873352,265,1.0,1
765,0,0.0,1,1.2106574773788452,266,0.0,1
766,0,1.0,1,1.5356552600860596,267,0.0,1
767,0,1.0,1,1.3696573972702026,268,1.0,1
768,0,1.0,1,1.2806576490402222,269,0.0,1
769,0,0.0,1,1.9666497707366943,270,0.0,1
770,0,0.0,1,1.681653380393982,271,1.0,1
771,0,0.0,1,1.6696535348892212,272,0.0,1
772,0,1.0,1,1.376657247543335,273,1.0,1
773,0,0.0,1,2.134650230407715,274,0.0,1
774,0,1.0,1,1.6186542510986328,275,0.0,1
775,0,0.0,1,1.19565749168396,276,1.0,1
776,0,0.0,1,1.2606576681137085,277,1.0,1
777,0,0.0,1,1.349657654762268,278,0.0,1
778,0,0.0,1,2.016649007797241,279,0.0,1
779,0,1.0,1,2.1066489219665527,280,0.0,1
780,0,0.0,1,1.5556550025939941,281,1.0,1
781,0,0.0,1,1.729652762413025,282,0.0,1
782,0,0.0,1,1.3146576881408691,283,1.0,1
783,0,0.0,1,1.3566575050354004,284,1.0,1
784,0,0.0,1,1.2806576490402222,285,0.0,1
785,0,1.0,1,1.494655728340149,286,0.0,1
786,0,0.0,1,2.183652639389038,287,1.0,1
787,0,0.0,1,1.188657522201538,288,0.0,1
788,0,1.0,1,1.6446537971496582,289,0.0,1
789,0,1.0,1,1.792651891708374,290,1.0,1
790,0,0.0,1,1.7306528091430664,291,0.0,1
791,0,0.0,1,1.2976577281951904,292,0.0,1
792,0,1.0,1,2.0936484336853027,293,1.0,1
793,0,1.0,1,1.611654281616211,294,1.0,1
794,0,1.0,1,1.5396552085876465,295,1.0,1
795,0,1.0,1,1.3846571445465088,296,1.0,1
796,0,0.0,1,1.5146554708480835,297,1.0,1
797,0,1.0,1,1.9526498317718506,298,1.0,1
798,0,0.0,1,1.2826576232910156,299,0.0,1
799,0,0.0,1,1.5056556463241577,300,1.0,1
800,0,0.0,1,1.2366576194763184,301,1.0,1
801,0,0.0,1,2.0396487712860107,302,0.0,1
802,0,1.0,1,1.7606523036956787,303,0.0,1
803,0,1.0,1,1.9886493682861328,304,1.0,1
804,0,1.0,1,1.6396539211273193,305,1.0,1
805,0,1.0,1,1.5656548738479614,306,1.0,1
806,0,1.0,1,1.296657681465149,307,1.0,1
807,0,1.0,1,1.614654302597046,308,0.0,1
808,0,1.0,1,2.0626485347747803,309,0.0,1
809,0,0.0,1,1.6946532726287842,310,1.0,1
810,0,0.0,1,1.3096576929092407,311,0.0,1
811,0,1.0,1,2.0066492557525635,312,1.0,1
812,0,1.0,1,1.3166577816009521,313,0.0,1
813,0,1.0,1,2.0626485347747803,314,1.0,1
814,0,1.0,1,1.748652458190918,315,0.0,1
815,0,1.0,1,1.5446550846099854,316,1.0,1
816,0,1.0,1,1.5246553421020508,317,0.0,1
817,0,1.0,1,1.704653024673462,318,1.0,1
818,0,1.0,1,1.652653694152832,319,1.0,1
819,0,1.0,1,1.4106568098068237,320,1.0,1
820,0,0.0,1,1.6646535396575928,321,0.0,1
821,0,1.0,1,1.40265691280365,322,1.0,1
822,0,1.0,1,1.3106577396392822,323,0.0,1
823,0,1.0,1,1.471656084060669,324,0.0,1
824,0,1.0,1,1.706653118133545,325,1.0,1
825,0,1.0,1,1.6096543073654175,326,1.0,1
826,0,1.0,1,1.494655728340149,327,1.0,1
827,0,0.0,1,1.2986576557159424,328,0.0,1
828,0,1.0,1,1.2106574773788452,329,0.0,1
829,0,1.0,1,1.3926570415496826,330,1.0,1
830,0,1.0,1,1.3056577444076538,331,1.0,1
831,0,1.0,1,1.559654951095581,332,0.0,1
832,0,0.0,1,1.7326526641845703,333,1.0,1
833,0,0.0,1,1.4396564960479736,334,0.0,1
834,0,1.0,1,1.5476551055908203,335,0.0,1
835,0,1.0,1,1.5926544666290283,336,1.0,1
836,0,1.0,1,1.51265549659729,337,1.0,1
837,0,1.0,1,1.5906546115875244,338,1.0,1
838,0,1.0,1,2.1106491088867188,339,1.0,1
839,0,1.0,1,1.5556550025939941,340,1.0,1
840,0,1.0,1,2.0896482467651367,341,0.0,1
841,0,0.0,1,1.8756508827209473,342,0.0,1
842,0,1.0,1,2.2216544151306152,343,0.0,1
843,0,0.0,1,1.7856520414352417,344,1.0,1
844,0,1.0,1,1.9946494102478027,345,0.0,1
845,0,0.0,1,1.289657711982727,346,0.0,1
846,0,0.0,1,1.6486537456512451,347,1.0,1
847,0,0.0,1,1.22565758228302,348,0.0,1
848,0,0.0,1,1.6366539001464844,349,0.0,1
849,0,1.0,1,1.5686547756195068,350,1.0,1
850,0,0.0,1,2.3286595344543457,351,0.0,1
851,0,1.0,1,1.5326552391052246,352,1.0,1
852,0,1.0,1,1.467656135559082,353,1.0,1
853,0,1.0,1,1.839651346206665,354,1.0,1
854,0,1.0,1,1.7106530666351318,355,1.0,1
855,0,1.0,1,1.4516563415527344,356,0.0,1
856,0,0.0,1,1.3146576881408691,357,0.0,1
857,0,1.0,1,1.9706497192382812,358,1.0,1
858,0,1.0,1,1.2976577281951904,359,1.0,1
859,0,1.0,1,1.494655728340149,360,0.0,1
860,0,0.0,1,1.2996577024459839,361,1.0,1
861,0,0.0,1,1.511655569076538,362,0.0,1
862,0,0.0,1,2.2996580600738525,363,0.0,1
863,0,1.0,1,1.7846519947052002,364,1.0,1
864,0,1.0,1,1.3896571397781372,365,1.0,1
865,0,1.0,1,1.401656985282898,366,1.0,1
866,0,0.0,1,1.4136568307876587,367,0.0,1
867,0,1.0,1,1.6646535396575928,368,1.0,1
868,0,1.0,1,1.4856559038162231,369,1.0,1
869,0,1.0,1,1.9156503677368164,370,1.0,1
870,0,0.0,1,1.2946577072143555,371,0.0,1
871,0,1.0,1,1.4886558055877686,372,1.0,1
872,0,1.0,1,1.3416577577590942,373,0.0,1
873,0,0.0,1,1.7876520156860352,374,0.0,1
874,0,0.0,1,1.3776572942733765,375,1.0,1
875,0,1.0,1,1.7076530456542969,376,1.0,1
876,0,1.0,1,1.611654281616211,377,0.0,1
877,0,0.0,1,1.6486537456512451,378,0.0,1
878,0,0.0,1,1.612654209136963,379,0.0,1
879,0,1.0,1,1.6716535091400146,380,1.0,1
880,0,0.0,1,1.6006543636322021,381,0.0,1
881,0,1.0,1,1.7756521701812744,382,1.0,1
882,0,1.0,1,1.3136577606201172,383,1.0,1
883,0,1.0,1,1.4986556768417358,384,1.0,1
884,0,1.0,1,1.8626511096954346,385,1.0,1
885,0,1.0,1,1.3156577348709106,386,0.0,1
886,0,1.0,1,1.4216567277908325,387,1.0,1
887,0,1.0,1,1.8626511096954346,388,1.0,1
888,0,1.0,1,1.296657681465149,389,1.0,1
889,0,1.0,1,1.3286577463150024,390,0.0,1
890,0,0.0,1,1.581654667854309,391,0.0,1
891,0,0.0,1,1.3286577463150024,392,0.0,1
892,0,1.0,1,1.6386539936065674,393,1.0,1
893,0,1.0,1,2.125649929046631,394,1.0,1
894,0,1.0,1,1.7166528701782227,395,1.0,1
895,0,1.0,1,1.7376526594161987,396,1.0,1
896,0,1.0,1,1.5306552648544312,397,0.0,1
897,0,0.0,1,1.4186567068099976,398,0.0,1
898,0,1.0,1,1.6156542301177979,399,0.0,1
899,0,0.0,1,1.3786572217941284,400,1.0,1
900,0,0.0,1,1.1606574058532715,401,1.0,1
901,0,0.0,1,1.6876533031463623,402,1.0,1
902,0,0.0,1,1.3346577882766724,403,0.0,1
903,0,0.0,1,2.193653106689453,404,1.0,1
904,0,0.0,1,1.3866571187973022,405,0.0,1
905,0,1.0,1,1.4386564493179321,406,1.0,1
906,0,1.0,1,1.4216567277908325,407,1.0,1
907,0,1.0,1,1.7186529636383057,408,0.0,1
908,0,1.0,1,1.7576524019241333,409,0.0,1
909,0,0.0,1,1.5616549253463745,410,0.0,1
910,0,0.0,1,1.394657015800476,411,0.0,1
911,0,1.0,1,1.612654209136963,412,1.0,1
912,0,1.0,1,2.0606484413146973,413,1.0,1
913,0,1.0,1,1.3076577186584473,414,1.0,1
914,0,1.0,1,1.5526549816131592,415,1.0,1
915,0,0.0,1,2.071648359298706,416,1.0,1
916,0,0.0,1,2.123649835586548,417,0.0,1
917,0,0.0,1,1.4326565265655518,418,0.0,1
918,0,1.0,1,1.4006569385528564,419,1.0,1
919,0,1.0,1,1.4746559858322144,420,0.0,1
920,0,1.0,1,1.8246514797210693,421,1.0,1
921,0,1.0,1,1.6316540241241455,422,1.0,1
922,0,1.0,1,1.8276515007019043,423,1.0,1
923,0,1.0,1,1.7316527366638184,424,1.0,1
924,0,0.0,1,1.88865065574646,425,0.0,1
925,0,1.0,1,1.263657569885254,426,1.0,1
926,0,1.0,1,1.5246553421020508,427,1.0,1
927,0,1.0,1,1.5306552648544312,428,1.0,1
928,0,0.0,1,1.2116575241088867,429,0.0,1
929,0,1.0,1,1.4376565217971802,430,1.0,1
930,0,1.0,1,1.721652865409851,431,1.0,1
931,0,0.0,1,2.069648265838623,432,0.0,1
932,0,0.0,1,1.4816559553146362,433,1.0,1
933,0,1.0,1,1.6646535396575928,434,1.0,1
934,0,1.0,1,1.2856576442718506,435,1.0,1
935,0,1.0,1,1.9676496982574463,436,1.0,1
936,0,0.0,1,1.3826571702957153,437,0.0,1
937,0,1.0,1,1.9726495742797852,438,1.0,1
938,0,1.0,1,1.3226577043533325,439,1.0,1
939,0,0.0,1,1.659653663635254,440,0.0,1
940,0,1.0,1,1.5036556720733643,441,1.0,1
941,0,1.0,1,1.7496525049209595,442,1.0,1
942,0,1.0,1,1.4136568307876587,443,1.0,1
943,0,1.0,1,1.5456551313400269,444,1.0,1
944,0,1.0,1,1.493655800819397,445,0.0,1
945,0,0.0,1,1.7536524534225464,446,0.0,1
946,0,1.0,1,1.5216554403305054,447,0.0,1
947,0,1.0,1,1.4876558780670166,448,1.0,1
948,0,1.0,1,1.3826571702957153,449,0.0,1
949,0,0.0,1,1.424656629562378,450,0.0,1
950,0,0.0,1,1.5846545696258545,451,0.0,1
951,0,0.0,1,1.3626574277877808,452,1.0,1
952,0,0.0,1,1.2706576585769653,453,0.0,1
953,0,0.0,1,1.349657654762268,454,1.0,1
954,0,1.0,1,1.449656367301941,455,1.0,1
955,0,1.0,1,1.560654878616333,456,1.0,1
956,0,1.0,1,1.9526498317718506,457,0.0,1
957,0,1.0,1,1.4316565990447998,458,0.0,1
958,0,0.0,1,1.6276540756225586,459,0.0,1
959,0,1.0,1,1.2376575469970703,460,1.0,1
960,0,1.0,1,2.0996487140655518,461,1.0,1
961,0,1.0,1,1.7656522989273071,462,1.0,1
962,0,1.0,1,1.8726508617401123,463,1.0,1
963,0,1.0,1,1.4556562900543213,464,1.0,1
964,0,1.0,1,1.3686573505401611,465,0.0,1
965,0,0.0,1,1.9466500282287598,466,0.0,1
966,0,0.0,1,1.9476499557495117,467,0.0,1
967,0,0.0,1,1.8636510372161865,468,0.0,1
968,0,1.0,1,1.725652813911438,469,0.0,1
969,0,1.0,1,1.7576524019241333,470,1.0,1
970,0,1.0,1,1.9376500844955444,471,0.0,1
971,0,1.0,1,1.7226529121398926,472,1.0,1
972,0,1.0,1,1.4696561098098755,473,0.0,1
973,0,1.0,1,1.2986576557159424,474,1.0,1
974,0,1.0,1,1.4836559295654297,475,1.0,1
975,0,1.0,1,1.7726521492004395,476,1.0,1
976,0,1.0,1,1.4616562128067017,477,1.0,1
977,0,1.0,1,1.3706573247909546,478,0.0,1
978,0,0.0,1,1.980649471282959,479,0.0,1
979,0,0.0,1,1.6096543073654175,480,0.0,1
980,0,1.0,1,1.3696573972702026,481,0.0,1
981,0,1.0,1,1.606654405593872,482,1.0,1
982,0,1.0,1,1.3956570625305176,483,1.0,1
983,0,1.0,1,1.7346527576446533,484,0.0,1
984,0,1.0,1,1.890650749206543,485,1.0,1
985,0,1.0,1,1.7796521186828613,486,0.0,1
986,0,1.0,1,1.3636574745178223,487,1.0,1
987,0,1.0,1,1.6496537923812866,488,1.0,1
988,0,1.0,1,1.4986556768417358,489,0.0,1
989,0,0.0,1,1.3996570110321045,490,0.0,1
990,0,1.0,1,1.5216554403305054,491,1.0,1
991,0,1.0,1,1.7316527366638184,492,0.0,1
992,0,1.0,1,1.4436564445495605,493,0.0,1
993,0,0.0,1,1.5836546421051025,494,0.0,1
994,0,1.0,1,1.5256553888320923,495,0.0,1
995,0,1.0,1,1.327657699584961,496,0.0,1
996,0,1.0,1,1.468656063079834,497,1.0,1
997,0,1.0,1,1.743652582168579,498,0.0,1
998,0,1.0,1,1.6426539421081543,499,0.0,1
999,0,0.0,1,1.158657431602478,500,0.0,1
1000,0,0.0,2,1.9926493167877197,1,1.0,1
1001,0,0.0,2,1.4596562385559082,2,1.0,1
1002,0,1.0,2,1.6216541528701782,3,0.0,1
1003,0,0.0,2,1.48965585231781,4,1.0,1
1004,0,0.0,2,1.401656985282898,5,1.0,1
1005,0,0.0,2,1.317657709121704,6,1.0,1
1006,0,0.0,2,1.589654564857483,7,1.0,1
1007,0,0.0,2,1.4626561403274536,8,1.0,1
1008,0,0.0,2,1.2306575775146484,9,1.0,1
1009,0,0.0,2,1.319657802581787,10,0.0,1
1010,0,0.0,2,1.9456499814987183,11,0.0,1
1011,0,0.0,2,1.2816576957702637,12,0.0,1
1012,0,0.0,2,1.2456575632095337,13,0.0,1
1013,0,0.0,2,1.2826576232910156,14,1.0,1
1014,0,0.0,2,1.441656470298767,15,1.0,1
1015,0,0.0,2,1.6916532516479492,16,1.0,1
1016,0,0.0,2,1.2386575937271118,17,0.0,1
1017,0,1.0,2,1.6056543588638306,18,0.0,1
1018,0,1.0,2,1.3246577978134155,19,1.0,1
1019,0,1.0,2,1.5056556463241577,20,0.0,1
1020,0,1.0,2,1.5716547966003418,21,1.0,1
1021,0,1.0,2,1.5846545696258545,22,0.0,1
1022,0,0.0,2,1.2316575050354004,23,0.0,1
1023,0,0.0,2,1.3416577577590942,24,0.0,1
1024,0,0.0,2,1.3706573247909546,25,1.0,1
1025,0,0.0,2,1.262657642364502,26,0.0,1
1026,0,0.0,2,1.191657543182373,27,1.0,1
1027,0,0.0,2,1.6806533336639404,28,0.0,1
1028,0,0.0,2,1.3346577882766724,29,0.0,1
1029,0,0.0,2,1.346657633781433,30,0.0,1
1030,0,0.0,2,2.035648822784424,31,1.0,1
1031,0,1.0,2,2.185652732849121,32,0.0,1
1032,0,0.0,2,1.8356513977050781,33,1.0,1
1033,0,0.0,2,1.582654595375061,34,0.0,1
1034,0,0.0,2,1.563654899597168,35,1.0,1
1035,0,0.0,2,1.611654281616211,36,0.0,1
1036,0,0.0,2,1.2776576280593872,37,0.0,1
1037,0,1.0,2,1.6956532001495361,38,1.0,1
1038,0,1.0,2,2.217654228210449,39,1.0,1
1039,0,1.0,2,1.1906574964523315,40,1.0,1
1040,0,1.0,2,1.441656470298767,41,0.0,1
1041,0,0.0,2,2.407663106918335,42,0.0,1
1042,0,0.0,2,1.8206515312194824,43,0.0,1
1043,0,1.0,2,1.3416577577590942,44,0.0,1
1044,0,1.0,2,1.8676509857177734,45,1.0,1
1045,0,1.0,2,1.652653694152832,46,1.0,1
1046,0,1.0,2,1.6646535396575928,47,1.0,1
1047,0,1.0,2,1.6276540756225586,48,1.0,1
1048,0,1.0,2,1.329657793045044,49,1.0,1
1049,0,1.0,2,1.81365168094635,50,1.0,1
1050,0,1.0,2,1.886650800704956,51,0.0,1
1051,0,0.0,2,1.423656702041626,52,1.0,1
1052,0,0.0,2,1.6406538486480713,53,1.0,1
1053,0,0.0,2,1.327657699584961,54,0.0,1
1054,0,0.0,2,1.134657382965088,55,0.0,1
1055,0,1.0,2,1.700653076171875,56,0.0,1
1056,0,0.0,2,1.6096543073654175,57,1.0,1
1057,0,0.0,2,1.5516550540924072,58,0.0,1
1058,0,0.0,2,1.935650110244751,59,1.0,1
1059,0,0.0,2,1.4326565265655518,60,1.0,1
1060,0,1.0,2,1.6446537971496582,61,1.0,1
1061,0,0.0,2,1.4386564493179321,62,1.0,1
1062,0,0.0,2,1.54165518283844,63,0.0,1
1063,0,1.0,2,1.8646509647369385,64,0.0,1
1064,0,1.0,2,2.0076491832733154,65,0.0,1
1065,0,0.0,2,1.8146517276763916,66,1.0,1
1066,0,0.0,2,1.2586575746536255,67,0.0,1
1067,0,0.0,2,1.4406564235687256,68,0.0,1
1068,0,0.0,2,1.2236576080322266,69,0.0,1
1069,0,0.0,2,1.2766577005386353,70,1.0,1
1070,0,0.0,2,1.2046575546264648,71,0.0,1
1071,0,1.0,2,1.5796546936035156,72,1.0,1
1072,0,0.0,2,1.5066555738449097,73,0.0,1
1073,0,1.0,2,1.5716547966003418,74,1.0,1
1074,0,1.0,2,1.442656397819519,75,0.0,1
1075,0,0.0,2,1.3966569900512695,76,1.0,1
1076,0,0.0,2,1.3076577186584473,77,1.0,1
1077,0,0.0,2,1.21965754032135,78,1.0,1
1078,0,0.0,2,1.7016531229019165,79,0.0,1
1079,0,0.0,2,1.1846574544906616,80,1.0,1
1080,0,0.0,2,1.4376565217971802,81,0.0,1
1081,0,0.0,2,1.2706576585769653,82,0.0,1
1082,0,0.0,2,1.3916571140289307,83,1.0,1
1083,0,0.0,2,1.1746574640274048,84,0.0,1
1084,0,1.0,2,1.5186554193496704,85,1.0,1
1085,0,0.0,2,1.2416576147079468,86,0.0,1
1086,0,1.0,2,1.8256515264511108,87,1.0,1
1087,0,1.0,2,1.5966544151306152,88,1.0,1
1088,0,1.0,2,1.4176567792892456,89,0.0,1
1089,0,1.0,2,1.397657036781311,90,1.0,1
1090,0,1.0,2,1.2976577281951904,91,1.0,1
1091,0,1.0,2,1.5106555223464966,92,1.0,1
1092,0,1.0,2,1.537655234336853,93,1.0,1
1093,0,1.0,2,1.511655569076538,94,0.0,1
1094,0,1.0,2,1.8046517372131348,95,0.0,1
1095,0,0.0,2,1.673653483390808,96,0.0,1
1096,0,0.0,2,1.769652247428894,97,0.0,1
1097,0,1.0,2,2.3256592750549316,98,0.0,1
1098,0,1.0,2,1.3886570930480957,99,1.0,1
1099,0,1.0,2,1.7186529636383057,100,0.0,1
1100,0,0.0,2,1.4916558265686035,101,1.0,1
1101,0,0.0,2,1.3436577320098877,102,1.0,1
1102,0,0.0,2,2.214653968811035,103,0.0,1
1103,0,1.0,2,1.9006505012512207,104,0.0,1
1104,0,1.0,2,1.65165376663208,105,0.0,1
1105,0,0.0,2,1.4506562948226929,106,0.0,1
1106,0,1.0,2,1.56465482711792,107,1.0,1
1107,0,1.0,2,1.332657814025879,108,1.0,1
1108,0,1.0,2,1.4566562175750732,109,0.0,1
1109,0,0.0,2,1.8286514282226562,110,0.0,1
1110,0,1.0,2,1.696653127670288,111,0.0,1
1111,0,0.0,2,1.5726547241210938,112,0.0,1
1112,0,0.0,2,1.6946532726287842,113,1.0,1
1113,0,0.0,2,1.4996557235717773,114,0.0,1
1114,0,0.0,2,1.4266566038131714,115,1.0,1
1115,0,0.0,2,1.7806520462036133,116,0.0,1
1116,0,0.0,2,1.5516550540924072,117,0.0,1
1117,0,1.0,2,1.751652479171753,118,1.0,1
1118,0,1.0,2,1.5226553678512573,119,1.0,1
1119,0,1.0,2,1.4656561613082886,120,1.0,1
1120,0,0.0,2,1.2436575889587402,121,0.0,1
1121,0,1.0,2,1.769652247428894,122,0.0,1
1122,0,0.0,2,1.3356578350067139,123,1.0,1
1123,0,0.0,2,1.8526511192321777,124,0.0,1
1124,0,0.0,2,1.8946506977081299,125,0.0,1
1125,0,0.0,2,1.5406551361083984,126,0.0,1
1126,0,0.0,2,1.746652603149414,127,1.0,1
1127,0,1.0,2,1.3456577062606812,128,1.0,1
1128,0,1.0,2,1.6196541786193848,129,1.0,1
1129,0,1.0,2,1.6306540966033936,130,1.0,1
1130,0,0.0,2,1.2436575889587402,131,0.0,1
1131,0,1.0,2,1.5176554918289185,132,0.0,1
1132,0,0.0,2,1.4476563930511475,133,0.0,1
1133,0,1.0,2,2.038648843765259,134,0.0,1
1134,0,0.0,2,1.9676496982574463,135,1.0,1
1135,0,0.0,2,1.2686576843261719,136,0.0,1
1136,0,0.0,2,1.838651418685913,137,1.0,1
1137,0,0.0,2,1.9156503677368164,138,1.0,1
1138,0,0.0,2,1.4576562643051147,139,0.0,1
1139,0,0.0,2,1.610654354095459,140,0.0,1
1140,0,0.0,2,1.6216541528701782,141,0.0,1
1141,0,1.0,2,1.658653736114502,142,1.0,1
1142,0,0.0,2,1.263657569885254,143,0.0,1
1143,0,1.0,2,1.3026577234268188,144,0.0,1
1144,0,1.0,2,1.51265549659729,145,0.0,1
1145,0,1.0,2,1.5926544666290283,146,0.0,1
1146,0,0.0,2,1.6206541061401367,147,0.0,1
1147,0,1.0,2,1.329657793045044,148,1.0,1
1148,0,1.0,2,1.3426576852798462,149,0.0,1
1149,0,1.0,2,1.228657603263855,150,0.0,1
1150,0,0.0,2,1.5396552085876465,151,1.0,1
1151,0,0.0,2,1.3096576929092407,152,1.0,1
1152,0,0.0,2,1.4096568822860718,153,0.0,1
1153,0,0.0,2,1.7426526546478271,154,0.0,1
1154,0,1.0,2,1.5066555738449097,155,1.0,1
1155,0,1.0,2,1.607654333114624,156,0.0,1
1156,0,1.0,2,1.5626548528671265,157,1.0,1
1157,0,0.0,2,1.702653169631958,158,0.0,1
1158,0,0.0,2,1.1716574430465698,159,1.0,1
1159,0,0.0,2,1.2846577167510986,160,0.0,1
1160,0,1.0,2,1.2846577167510986,161,1.0,1
1161,0,1.0,2,1.9466500282287598,162,1.0,1
1162,0,1.0,2,1.5556550025939941,163,1.0,1
1163,0,1.0,2,1.702653169631958,164,0.0,1
1164,0,1.0,2,1.4006569385528564,165,0.0,1
1165,0,0.0,2,1.3146576881408691,166,0.0,1
1166,0,1.0,2,1.3126577138900757,167,1.0,1
1167,0,1.0,2,1.6866533756256104,168,0.0,1
1168,0,0.0,2,1.9446499347686768,169,0.0,1
1169,0,1.0,2,1.4306565523147583,170,0.0,1
1170,0,1.0,2,1.3566575050354004,171,1.0,1
1171,0,1.0,2,1.2236576080322266,172,1.0,1
1172,0,1.0,2,1.2946577072143555,173,1.0,1
1173,0,1.0,2,1.6096543073654175,174,1.0,1
1174,0,0.0,2,1.4846558570861816,175,1.0,1
1175,0,1.0,2,1.7726521492004395,176,0.0,1
1176,0,0.0,2,1.7396526336669922,177,0.0,1
1177,0,0.0,2,1.9336501359939575,178,0.0,1
1178,0,1.0,2,1.4596562385559082,179,1.0,1
1179,0,1.0,2,1.2796576023101807,180,1.0,1
1180,0,1.0,2,1.2046575546264648,181,0.0,1
1181,0,1.0,2,1.2846577167510986,182,0.0,1
1182,0,0.0,2,1.8606510162353516,183,1.0,1
1183,0,0.0,2,1.2696576118469238,184,1.0,1
1184,0,0.0,2,1.1976574659347534,185,0.0,1
1185,0,0.0,2,1.7266528606414795,186,0.0,1
1186,0,1.0,2,1.5066555738449097,187,0.0,1
1187,0,1.0,2,1.4086568355560303,188,0.0,1
1188,0,1.0,2,1.4626561403274536,189,0.0,1
1189,0,0.0,2,1.3476576805114746,190,0.0,1
1190,0,0.0,2,1.2306575775146484,191,1.0,1
1191,0,0.0,2,1.228657603263855,192,0.0,1
1192,0,1.0,2,1.511655569076538,193,0.0,1
1193,0,0.0,2,1.8166515827178955,194,0.0,1
1194,0,0.0,2,1.2206575870513916,195,1.0,1
1195,0,0.0,2,1.1656574010849,196,1.0,1
1196,0,0.0,2,1.2496576309204102,197,1.0,1
1197,0,0.0,2,1.4586561918258667,198,1.0,1
1198,0,0.0,2,1.8266515731811523,199,1.0,1
1199,0,1.0,2,1.3406577110290527,200,1.0,1
1200,0,1.0,2,1.5056556463241577,201,1.0,1
1201,0,1.0,2,1.6656535863876343,202,1.0,1
1202,0,0.0,2,1.6876533031463623,203,0.0,1
1203,0,0.0,2,1.486655831336975,204,1.0,1
1204,0,0.0,2,1.2826576232910156,205,1.0,1
1205,0,1.0,2,2.124650001525879,206,1.0,1
1206,0,0.0,2,1.6176542043685913,207,0.0,1
1207,0,0.0,2,1.2546576261520386,208,0.0,1
1208,0,1.0,2,1.8936506509780884,209,0.0,1
1209,0,0.0,2,1.4566562175750732,210,0.0,1
1210,0,0.0,2,1.980649471282959,211,1.0,1
1211,0,0.0,2,1.372657299041748,212,0.0,1
1212,0,0.0,2,1.8196516036987305,213,1.0,1
1213,0,0.0,2,1.289657711982727,214,1.0,1
1214,0,0.0,2,1.4986556768417358,215,1.0,1
1215,0,0.0,2,1.6376539468765259,216,0.0,1
1216,0,0.0,2,1.585654616355896,217,1.0,1
1217,0,0.0,2,1.2816576957702637,218,1.0,1
1218,0,1.0,2,1.7626523971557617,219,1.0,1
1219,0,1.0,2,1.7896519899368286,220,0.0,1
1220,0,0.0,2,1.5436551570892334,221,1.0,1
1221,0,0.0,2,1.534655213356018,222,0.0,1
1222,0,0.0,2,1.2376575469970703,223,1.0,1
1223,0,0.0,2,1.7496525049209595,224,0.0,1
1224,0,0.0,2,1.2316575050354004,225,0.0,1
1225,0,1.0,2,1.5336552858352661,226,1.0,1
1226,0,1.0,2,1.7756521701812744,227,0.0,1
1227,0,1.0,2,1.3676574230194092,228,0.0,1
1228,0,0.0,2,1.8356513977050781,229,1.0,1
1229,0,0.0,2,1.7616523504257202,230,0.0,1
1230,0,0.0,2,2.0536484718322754,231,0.0,1
1231,0,0.0,2,1.4376565217971802,232,0.0,1
1232,0,0.0,2,1.799651861190796,233,0.0,1
1233,0,1.0,2,1.589654564857483,234,1.0,1
1234,0,1.0,2,1.293657660484314,235,1.0,1
1235,0,1.0,2,1.3806571960449219,236,0.0,1
1236,0,1.0,2,1.9296501874923706,237,1.0,1
1237,0,1.0,2,1.5956544876098633,238,1.0,1
1238,0,0.0,2,1.2856576442718506,239,0.0,1
1239,0,0.0,2,1.5766546726226807,240,0.0,1
1240,0,1.0,2,1.4076569080352783,241,1.0,1
1241,0,1.0,2,1.7076530456542969,242,0.0,1
1242,0,1.0,2,1.3316577672958374,243,1.0,1
1243,0,1.0,2,1.4816559553146362,244,1.0,1
1244,0,1.0,2,1.4176567792892456,245,0.0,1
1245,0,0.0,2,2.035648822784424,246,0.0,1
1246,0,1.0,2,1.7196528911590576,247,1.0,1
1247,0,1.0,2,1.2686576843261719,248,1.0,1
1248,0,1.0,2,1.6176542043685913,249,0.0,1
1249,0,0.0,2,1.2236576080322266,250,0.0,1
1250,0,1.0,2,1.5006556510925293,251,1.0,1
1251,0,1.0,2,1.6166541576385498,252,0.0,1
1252,0,1.0,2,1.7866520881652832,253,0.0,1
1253,0,0.0,2,1.2316575050354004,254,1.0,1
1254,0,0.0,2,1.3486576080322266,255,0.0,1
1255,0,0.0,2,1.936650037765503,256,1.0,1
1256,0,0.0,2,1.2096575498580933,257,1.0,1
1257,0,0.0,2,1.3916571140289307,258,0.0,1
1258,0,0.0,2,1.3686573505401611,259,0.0,1
1259,0,0.0,2,1.293657660484314,260,0.0,1
1260,0,1.0,2,1.7756521701812744,261,1.0,1
1261,0,1.0,2,1.354657530784607,262,0.0,1
1262,0,1.0,2,1.581654667854309,263,0.0,1
1263,0,0.0,2,1.8776508569717407,264,0.0,1
1264,0,0.0,2,1.8966505527496338,265,0.0,1
1265,0,0.0,2,1.5526549816131592,266,1.0,1
1266,0,0.0,2,1.2416576147079468,267,0.0,1
1267,0,0.0,2,1.747652530670166,268,0.0,1
1268,0,0.0,2,1.3856571912765503,269,0.0,1
1269,0,0.0,2,1.3256577253341675,270,0.0,1
1270,0,0.0,2,1.3146576881408691,271,1.0,1
1271,0,0.0,2,1.4156568050384521,272,0.0,1
1272,0,1.0,2,1.5796546936035156,273,0.0,1
1273,0,0.0,2,1.6366539001464844,274,1.0,1
1274,0,0.0,2,1.5046555995941162,275,0.0,1
1275,0,1.0,2,1.4966557025909424,276,0.0,1
1276,0,1.0,2,2.3536605834960938,277,0.0,1
1277,0,0.0,2,1.788651943206787,278,0.0,1
1278,0,0.0,2,1.3106577396392822,279,1.0,1
1279,0,0.0,2,1.4366564750671387,280,0.0,1
1280,0,1.0,2,1.8986506462097168,281,1.0,1
1281,0,1.0,2,2.112649440765381,282,1.0,1
1282,0,0.0,2,1.7626523971557617,283,1.0,1
1283,0,0.0,2,1.4436564445495605,284,0.0,1
1284,0,1.0,2,1.5336552858352661,285,1.0,1
1285,0,0.0,2,1.158657431602478,286,0.0,1
1286,0,1.0,2,1.843651294708252,287,0.0,1
1287,0,1.0,2,1.7876520156860352,288,1.0,1
1288,0,1.0,2,1.698653221130371,289,0.0,1
1289,0,0.0,2,1.2916576862335205,290,0.0,1
1290,0,1.0,2,1.5556550025939941,291,0.0,1
1291,0,1.0,2,1.9186503887176514,292,0.0,1
1292,0,0.0,2,1.4256566762924194,293,0.0,1
1293,0,1.0,2,1.2796576023101807,294,0.0,1
1294,0,0.0,2,1.4556562900543213,295,1.0,1
1295,0,0.0,2,1.6766533851623535,296,0.0,1
1296,0,0.0,2,1.3516576290130615,297,1.0,1
1297,0,1.0,2,1.9936493635177612,298,0.0,1
1298,0,0.0,2,1.3706573247909546,299,1.0,1
1299,0,0.0,2,1.534655213356018,300,1.0,1
1300,0,0.0,2,1.3776572942733765,301,0.0,1
1301,0,0.0,2,1.4776560068130493,302,0.0,1
1302,0,0.0,2,1.51265549659729,303,1.0,1
1303,0,0.0,2,1.7846519947052002,304,1.0,1
1304,0,0.0,2,1.3246577978134155,305,0.0,1
1305,0,0.0,2,1.3376578092575073,306,1.0,1
1306,0,1.0,2,1.9226503372192383,307,1.0,1
1307,0,0.0,2,1.909650444984436,308,0.0,1
1308,0,1.0,2,1.5026556253433228,309,0.0,1
1309,0,1.0,2,1.6646535396575928,310,1.0,1
1310,0,0.0,2,1.7566523551940918,311,1.0,1
1311,0,0.0,2,1.2466576099395752,312,1.0,1
1312,0,1.0,2,1.8006517887115479,313,1.0,1
1313,0,0.0,2,1.6006543636322021,314,1.0,1
1314,0,0.0,2,1.673653483390808,315,0.0,1
1315,0,1.0,2,1.6026544570922852,316,1.0,1
1316,0,0.0,2,2.068648338317871,317,0.0,1
1317,0,1.0,2,1.3366577625274658,318,0.0,1
1318,0,0.0,2,1.3346577882766724,319,0.0,1
1319,0,1.0,2,1.4226566553115845,320,0.0,1
1320,0,1.0,2,1.7226529121398926,321,0.0,1
1321,0,0.0,2,1.6316540241241455,322,0.0,1
1322,0,1.0,2,1.186657428741455,323,0.0,1
1323,0,1.0,2,1.5326552391052246,324,0.0,1
1324,0,0.0,2,1.6576536893844604,325,0.0,1
1325,0,0.0,2,1.8506512641906738,326,0.0,1
1326,0,1.0,2,1.581654667854309,327,1.0,1
1327,0,1.0,2,1.449656367301941,328,0.0,1
1328,0,0.0,2,1.4826558828353882,329,0.0,1
1329,0,1.0,2,2.155651330947876,330,1.0,1
1330,0,1.0,2,1.4656561613082886,331,1.0,1
1331,0,1.0,2,1.2516576051712036,332,1.0,1
1332,0,1.0,2,1.2676576375961304,333,0.0,1
1333,0,0.0,2,1.2406575679779053,334,0.0,1
1334,0,0.0,2,1.5546549558639526,335,1.0,1
1335,0,0.0,2,1.5836546421051025,336,1.0,1
1336,0,0.0,2,1.798651933670044,337,0.0,1
1337,0,1.0,2,1.494655728340149,338,1.0,1
1338,0,1.0,2,1.6356539726257324,339,1.0,1
1339,0,1.0,2,1.8586511611938477,340,0.0,1
1340,0,1.0,2,1.253657579421997,341,1.0,1
1341,0,1.0,2,1.9466500282287598,342,1.0,1
1342,0,1.0,2,1.354657530784607,343,0.0,1
1343,0,0.0,2,2.190652847290039,344,0.0,1
1344,0,1.0,2,1.984649419784546,345,1.0,1
1345,0,0.0,2,1.7656522989273071,346,1.0,1
1346,0,0.0,2,2.0946483612060547,347,0.0,1
1347,0,1.0,2,2.348660469055176,348,1.0,1
1348,0,1.0,2,1.2946577072143555,349,0.0,1
1349,0,0.0,2,1.608654260635376,350,1.0,1
1350,0,0.0,2,1.441656470298767,351,1.0,1
1351,0,1.0,2,1.8736509084701538,352,0.0,1
1352,0,0.0,2,1.3366577625274658,353,1.0,1
1353,0,0.0,2,1.2746576070785522,354,0.0,1
1354,0,0.0,2,1.3856571912765503,355,0.0,1
1355,0,0.0,2,1.3956570625305176,356,0.0,1
1356,0,1.0,2,1.928650140762329,357,0.0,1
1357,0,0.0,2,1.3586574792861938,358,0.0,1
1358,0,0.0,2,1.6286540031433105,359,0.0,1
1359,0,0.0,2,1.2946577072143555,360,0.0,1
1360,0,0.0,2,1.4366564750671387,361,1.0,1
1361,0,0.0,2,1.376657247543335,362,1.0,1
1362,0,0.0,2,1.2956576347351074,363,1.0,1
1363,0,0.0,2,1.4146567583084106,364,1.0,1
1364,0,1.0,2,1.3036577701568604,365,1.0,1
1365,0,0.0,2,1.4856559038162231,366,0.0,1
1366,0,1.0,2,1.8286514282226562,367,0.0,1
1367,0,0.0,2,1.773652195930481,368,0.0,1
1368,0,1.0,2,1.5366551876068115,369,1.0,1
1369,0,1.0,2,1.2076575756072998,370,1.0,1
1370,0,1.0,2,1.519655466079712,371,1.0,1
1371,0,1.0,2,1.4266566038131714,372,1.0,1
1372,0,1.0,2,1.493655800819397,373,1.0,1
1373,0,1.0,2,1.289657711982727,374,1.0,1
1374,0,0.0,2,1.3376578092575073,375,1.0,1
1375,0,0.0,2,1.9226503372192383,376,1.0,1
1376,0,0.0,2,1.4446563720703125,377,0.0,1
1377,0,1.0,2,1.3286577463150024,378,1.0,1
1378,0,1.0,2,1.2616575956344604,379,0.0,1
1379,0,1.0,2,1.4346565008163452,380,0.0,1
1380,0,1.0,2,2.02764892578125,381,0.0,1
1381,0,1.0,2,1.3376578092575073,382,0.0,1
1382,0,0.0,2,2.0846481323242188,383,0.0,1
1383,0,0.0,2,1.4266566038131714,384,1.0,1
1384,0,0.0,2,1.7196528911590576,385,1.0,1
1385,0,0.0,2,1.5106555223464966,386,1.0,1
1386,0,0.0,2,1.222657561302185,387,0.0,1
1387,0,0.0,2,1.4656561613082886,388,1.0,1
1388,0,0.0,2,1.4526562690734863,389,0.0,1
1389,0,0.0,2,1.2986576557159424,390,0.0,1
1390,0,0.0,2,1.5216554403305054,391,1.0,1
1391,0,0.0,2,1.9116504192352295,392,1.0,1
1392,0,0.0,2,1.9706497192382812,393,0.0,1
1393,0,1.0,2,1.2166575193405151,394,0.0,1
1394,0,1.0,2,1.8666510581970215,395,1.0,1
1395,0,0.0,2,1.7756521701812744,396,1.0,1
1396,0,0.0,2,1.4556562900543213,397,1.0,1
1397,0,0.0,2,1.375657320022583,398,1.0,1
1398,0,0.0,2,1.2846577167510986,399,1.0,1
1399,0,0.0,2,1.4406564235687256,400,1.0,1
1400,0,0.0,2,1.746652603149414,401,0.0,1
1401,0,1.0,2,1.8006517887115479,402,0.0,1
1402,0,0.0,2,1.4976557493209839,403,1.0,1
1403,0,0.0,2,1.1746574640274048,404,0.0,1
1404,0,1.0,2,1.9506499767303467,405,1.0,1
1405,0,0.0,2,1.4186567068099976,406,1.0,1
1406,0,0.0,2,1.652653694152832,407,1.0,1
1407,0,0.0,2,1.445656418800354,408,0.0,1
1408,0,1.0,2,1.8286514282226562,409,1.0,1
1409,0,1.0,2,1.5016556978225708,410,1.0,1
1410,0,0.0,2,1.4856559038162231,411,1.0,1
1411,0,1.0,2,1.8016518354415894,412,1.0,1
1412,0,0.0,2,1.6416538953781128,413,0.0,1
1413,0,1.0,2,2.020648956298828,414,0.0,1
1414,0,1.0,2,1.7366526126861572,415,1.0,1
1415,0,1.0,2,1.7536524534225464,416,1.0,1
1416,0,1.0,2,1.980649471282959,417,1.0,1
1417,0,1.0,2,1.4986556768417358,418,0.0,1
1418,0,0.0,2,1.401656985282898,419,0.0,1
1419,0,1.0,2,2.0076491832733154,420,0.0,1
1420,0,0.0,2,1.844651222229004,421,0.0,1
1421,0,0.0,2,1.4366564750671387,422,1.0,1
1422,0,1.0,2,1.939650058746338,423,0.0,1
1423,0,0.0,2,1.6196541786193848,424,0.0,1
1424,0,1.0,2,2.2806572914123535,425,0.0,1
1425,0,0.0,2,1.8786509037017822,426,1.0,1
1426,0,0.0,2,1.472656011581421,427,1.0,1
1427,0,0.0,2,1.3786572217941284,428,0.0,1
1428,0,1.0,2,1.7416526079177856,429,1.0,1
1429,0,1.0,2,1.4256566762924194,430,0.0,1
1430,0,1.0,2,1.472656011581421,431,1.0,1
1431,0,0.0,2,1.330657720565796,432,0.0,1
1432,0,1.0,2,1.7416526079177856,433,1.0,1
1433,0,1.0,2,1.3926570415496826,434,0.0,1
1434,0,0.0,2,1.4916558265686035,435,1.0,1
1435,0,0.0,2,1.537655234336853,436,0.0,1
1436,0,1.0,2,2.0486485958099365,437,1.0,1
1437,0,0.0,2,2.025649070739746,438,0.0,1
1438,0,0.0,2,1.6656535863876343,439,0.0,1
1439,0,1.0,2,1.427656650543213,440,1.0,1
1440,0,1.0,2,1.7766520977020264,441,1.0,1
1441,0,1.0,2,1.4696561098098755,442,0.0,1
1442,0,0.0,2,1.8036518096923828,443,1.0,1
1443,0,0.0,2,1.4056569337844849,444,0.0,1
1444,0,0.0,2,1.2146575450897217,445,1.0,1
1445,0,0.0,2,1.751652479171753,446,1.0,1
1446,0,0.0,2,1.3736573457717896,447,0.0,1
1447,0,1.0,2,1.4586561918258667,448,1.0,1
1448,0,1.0,2,1.5136555433273315,449,1.0,1
1449,0,1.0,2,1.37965726852417,450,1.0,1
1450,0,1.0,2,1.4756560325622559,451,0.0,1
1451,0,0.0,2,1.263657569885254,452,1.0,1
1452,0,1.0,2,1.401656985282898,453,1.0,1
1453,0,0.0,2,1.423656702041626,454,1.0,1
1454,0,1.0,2,1.3166577816009521,455,0.0,1
1455,0,0.0,2,1.629654049873352,456,0.0,1
1456,0,0.0,2,1.6716535091400146,457,0.0,1
1457,0,1.0,2,1.5616549253463745,458,0.0,1
1458,0,1.0,2,1.563654899597168,459,0.0,1
1459,0,0.0,2,1.5136555433273315,460,1.0,1
1460,0,0.0,2,1.4856559038162231,461,0.0,1
1461,0,0.0,2,1.8066518306732178,462,0.0,1
1462,0,0.0,2,1.445656418800354,463,0.0,1
1463,0,0.0,2,1.3836572170257568,464,0.0,1
1464,0,1.0,2,2.0886483192443848,465,1.0,1
1465,0,1.0,2,2.163651704788208,466,1.0,1
1466,0,1.0,2,1.3116576671600342,467,0.0,1
1467,0,0.0,2,1.3586574792861938,468,1.0,1
1468,0,0.0,2,1.2406575679779053,469,0.0,1
1469,0,0.0,2,1.3016576766967773,470,0.0,1
1470,0,0.0,2,1.2716577053070068,471,1.0,1
1471,0,0.0,2,1.1836574077606201,472,1.0,1
1472,0,0.0,2,1.4976557493209839,473,0.0,1
1473,0,1.0,2,1.442656397819519,474,0.0,1
1474,0,1.0,2,1.6446537971496582,475,0.0,1
1475,0,0.0,2,1.3186577558517456,476,0.0,1
1476,0,1.0,2,1.3076577186584473,477,1.0,1
1477,0,1.0,2,1.2336575984954834,478,1.0,1
1478,0,0.0,2,2.15165114402771,479,1.0,1
1479,0,1.0,2,1.3956570625305176,480,1.0,1
1480,0,1.0,2,1.8006517887115479,481,0.0,1
1481,0,0.0,2,1.490655779838562,482,1.0,1
1482,0,1.0,2,1.8646509647369385,483,0.0,1
1483,0,0.0,2,1.3256577253341675,484,0.0,1
1484,0,0.0,2,1.9106504917144775,485,0.0,1
1485,0,1.0,2,1.8276515007019043,486,0.0,1
1486,0,0.0,2,1.7906520366668701,487,0.0,1
1487,0,1.0,2,1.7346527576446533,488,1.0,1
1488,0,1.0,2,1.493655800819397,489,1.0,1
1489,0,0.0,2,1.3106577396392822,490,1.0,1
1490,0,1.0,2,1.5106555223464966,491,1.0,1
1491,0,0.0,2,1.9206502437591553,492,0.0,1
1492,0,0.0,2,1.5006556510925293,493,0.0,1
1493,0,1.0,2,1.7426526546478271,494,1.0,1
1494,0,0.0,2,1.9476499557495117,495,0.0,1
1495,0,1.0,2,1.4636561870574951,496,1.0,1
1496,0,1.0,2,1.4956557750701904,497,1.0,1
1497,0,1.0,2,1.2666575908660889,498,1.0,1
1498,0,1.0,2,1.3166577816009521,499,0.0,1
1499,0,0.0,2,2.173652172088623,500,0.0,1
1500,1,1.0,0,2.259204626083374,1,1.0,1
1501,1,1.0,0,1.3412048816680908,2,1.0,1
1502,1,1.0,0,1.5192025899887085,3,0.0,1
1503,1,1.0,0,1.5452022552490234,4,1.0,1
1504,1,1.0,0,1.140204906463623,5,1.0,1
1505,1,1.0,0,1.6952004432678223,6,1.0,1
1506,1,0.0,0,1.1612049341201782,7,0.0,1
1507,1,1.0,0,1.8321986198425293,8,0.0,1
1508,1,0.0,0,1.274205207824707,9,1.0,1
1509,1,0.0,0,2.3332080841064453,10,0.0,1
1510,1,1.0,0,1.547202229499817,11,1.0,1
1511,1,1.0,0,1.5152026414871216,12,1.0,1
1512,1,1.0,0,1.701200246810913,13,0.0,1
1513,1,0.0,0,2.032196044921875,14,0.0,1
1514,1,1.0,0,1.4372036457061768,15,1.0,1
1515,1,1.0,0,1.707200288772583,16,1.0,1
1516,1,1.0,0,1.4122040271759033,17,1.0,1
1517,1,1.0,0,1.5082027912139893,18,0.0,1
1518,1,0.0,0,1.3202052116394043,19,0.0,1
1519,1,1.0,0,1.8731980323791504,20,0.0,1
1520,1,1.0,0,2.1832010746002197,21,1.0,1
1521,1,1.0,0,1.3402049541473389,22,1.0,1
1522,1,1.0,0,1.403204083442688,23,1.0,1
1523,1,1.0,0,1.5512021780014038,24,1.0,1
1524,1,1.0,0,1.4002041816711426,25,1.0,1
1525,1,1.0,0,1.4812030792236328,26,0.0,1
1526,1,0.0,0,1.451203465461731,27,0.0,1
1527,1,1.0,0,1.4812030792236328,28,1.0,1
1528,1,1.0,0,1.3682045936584473,29,1.0,1
1529,1,1.0,0,1.6012015342712402,30,1.0,1
1530,1,1.0,0,1.3312050104141235,31,1.0,1
1531,1,1.0,0,2.1712005138397217,32,1.0,1
1532,1,1.0,0,1.4352036714553833,33,1.0,1
1533,1,1.0,0,1.359204649925232,34,1.0,1
1534,1,1.0,0,1.516202688217163,35,1.0,1
1535,1,1.0,0,1.3192051649093628,36,1.0,1
1536,1,1.0,0,1.2252050638198853,37,1.0,1
1537,1,1.0,0,1.3822044134140015,38,1.0,1
1538,1,1.0,0,1.5912017822265625,39,0.0,1
1539,1,1.0,0,1.9021977186203003,40,0.0,1
1540,1,0.0,0,1.571202039718628,41,0.0,1
1541,1,0.0,0,2.4112117290496826,42,0.0,1
1542,1,0.0,0,1.7172000408172607,43,0.0,1
1543,1,0.0,0,1.1822049617767334,44,0.0,1
1544,1,1.0,0,1.3612046241760254,45,1.0,1
1545,1,1.0,0,1.4272037744522095,46,1.0,1
1546,1,1.0,0,1.701200246810913,47,1.0,1
1547,1,1.0,0,1.4562034606933594,48,1.0,1
1548,1,1.0,0,1.4802031517028809,49,1.0,1
1549,1,1.0,0,1.4302037954330444,50,1.0,1
1550,1,1.0,0,1.362204670906067,51,1.0,1
1551,1,1.0,0,1.4112039804458618,52,0.0,1
1552,1,1.0,0,2.1932015419006348,53,1.0,1
1553,1,1.0,0,1.6902004480361938,54,1.0,1
1554,1,1.0,0,1.663200855255127,55,1.0,1
1555,1,1.0,0,1.3882043361663818,56,1.0,1
1556,1,1.0,0,1.612201452255249,57,0.0,1
1557,1,1.0,0,2.490215301513672,58,1.0,1
1558,1,1.0,0,1.429203748703003,59,0.0,1
1559,1,0.0,0,1.547202229499817,60,0.0,1
1560,1,1.0,0,1.797199010848999,61,1.0,1
1561,1,1.0,0,1.4272037744522095,62,1.0,1
1562,1,1.0,0,1.4442036151885986,63,1.0,1
1563,1,1.0,0,1.336205005645752,64,1.0,1
1564,1,1.0,0,1.4902030229568481,65,1.0,1
1565,1,1.0,0,1.7251999378204346,66,1.0,1
1566,1,1.0,0,1.183205008506775,67,1.0,1
1567,1,0.0,0,1.8191988468170166,68,0.0,1
1568,1,1.0,0,1.2612050771713257,69,1.0,1
1569,1,1.0,0,1.3642046451568604,70,1.0,1
1570,1,1.0,0,1.4602034091949463,71,1.0,1
1571,1,1.0,0,1.3562047481536865,72,1.0,1
1572,1,1.0,0,1.473203182220459,73,1.0,1
1573,1,1.0,0,1.4432035684585571,74,1.0,1
1574,1,1.0,0,1.3792043924331665,75,1.0,1
1575,1,1.0,0,1.3382049798965454,76,1.0,1
1576,1,0.0,0,1.6492009162902832,77,0.0,1
1577,1,0.0,0,1.1652048826217651,78,0.0,1
1578,1,1.0,0,1.2432050704956055,79,1.0,1
1579,1,1.0,0,1.2632051706314087,80,1.0,1
1580,1,1.0,0,1.8461984395980835,81,1.0,1
1581,1,1.0,0,1.3832043409347534,82,1.0,1
1582,1,1.0,0,1.5852017402648926,83,1.0,1
1583,1,1.0,0,1.3562047481536865,84,1.0,1
1584,1,0.0,0,1.5332024097442627,85,1.0,1
1585,1,0.0,0,1.678200602531433,86,0.0,1
1586,1,1.0,0,2.1011972427368164,87,1.0,1
1587,1,1.0,0,1.7351999282836914,88,0.0,1
1588,1,1.0,0,1.4792031049728394,89,1.0,1
1589,1,1.0,0,1.4452035427093506,90,1.0,1
1590,1,1.0,0,1.6012015342712402,91,1.0,1
1591,1,1.0,0,1.3692045211791992,92,1.0,1
1592,1,1.0,0,1.7831993103027344,93,1.0,1
1593,1,1.0,0,1.818198800086975,94,1.0,1
1594,1,1.0,0,1.5972015857696533,95,1.0,1
1595,1,1.0,0,1.2902052402496338,96,1.0,1
1596,1,1.0,0,1.5452022552490234,97,1.0,1
1597,1,1.0,0,1.3042051792144775,98,0.0,1
1598,1,0.0,0,1.5412023067474365,99,1.0,1
1599,1,0.0,0,1.4192038774490356,100,0.0,1
1600,1,0.0,0,1.547202229499817,101,0.0,1
1601,1,0.0,0,2.1812009811401367,102,0.0,1
1602,1,1.0,0,2.4962158203125,103,1.0,1
1603,1,1.0,0,1.2282050848007202,104,1.0,1
1604,1,1.0,0,1.3722045421600342,105,1.0,1
1605,1,1.0,0,1.425203800201416,106,0.0,1
1606,1,1.0,0,2.4192121028900146,107,1.0,1
1607,1,1.0,0,1.2962051630020142,108,1.0,1
1608,1,1.0,0,1.35820472240448,109,1.0,1
1609,1,1.0,0,1.4892029762268066,110,1.0,1
1610,1,1.0,0,1.2912051677703857,111,0.0,1
1611,1,1.0,0,1.9261974096298218,112,1.0,1
1612,1,1.0,0,1.801198959350586,113,0.0,1
1613,1,0.0,0,1.3412048816680908,114,0.0,1
1614,1,0.0,0,1.3682045936584473,115,0.0,1
1615,1,0.0,0,1.4822031259536743,116,0.0,1
1616,1,1.0,0,1.4042041301727295,117,1.0,1
1617,1,1.0,0,1.6262012720108032,118,0.0,1
1618,1,0.0,0,1.6352012157440186,119,0.0,1
1619,1,0.0,0,2.1251983642578125,120,0.0,1
1620,1,1.0,0,1.214205026626587,121,1.0,1
1621,1,0.0,0,1.4792031049728394,122,0.0,1
1622,1,1.0,0,1.5752019882202148,123,1.0,1
1623,1,1.0,0,1.3602046966552734,124,1.0,1
1624,1,1.0,0,1.5512021780014038,125,1.0,1
1625,1,1.0,0,1.5302025079727173,126,1.0,1
1626,1,1.0,0,1.3102052211761475,127,0.0,1
1627,1,1.0,0,1.336205005645752,128,1.0,1
1628,1,1.0,0,1.266205072402954,129,1.0,1
1629,1,1.0,0,1.8651981353759766,130,0.0,1
1630,1,0.0,0,1.3682045936584473,131,0.0,1
1631,1,0.0,0,1.351204752922058,132,0.0,1
1632,1,1.0,0,1.3532047271728516,133,1.0,1
1633,1,1.0,0,1.8341985940933228,134,1.0,1
1634,1,1.0,0,1.2502050399780273,135,0.0,1
1635,1,1.0,0,1.8781980276107788,136,1.0,1
1636,1,1.0,0,1.6772005558013916,137,1.0,1
1637,1,1.0,0,1.4562034606933594,138,1.0,1
1638,1,1.0,0,1.4332036972045898,139,0.0,1
1639,1,0.0,0,1.4422036409378052,140,0.0,1
1640,1,0.0,0,1.6492009162902832,141,0.0,1
1641,1,1.0,0,1.707200288772583,142,1.0,1
1642,1,1.0,0,1.6662007570266724,143,1.0,1
1643,1,1.0,0,1.495202898979187,144,1.0,1
1644,1,1.0,0,1.494202971458435,145,1.0,1
1645,1,1.0,0,1.2552051544189453,146,0.0,1
1646,1,0.0,0,1.3942042589187622,147,0.0,1
1647,1,1.0,0,1.5932016372680664,148,1.0,1
1648,1,1.0,0,1.7172000408172607,149,1.0,1
1649,1,1.0,0,1.4172039031982422,150,1.0,1
1650,1,1.0,0,1.4202039241790771,151,1.0,1
1651,1,1.0,0,1.4402036666870117,152,1.0,1
1652,1,1.0,0,1.3132052421569824,153,1.0,1
1653,1,1.0,0,1.65920090675354,154,1.0,1
1654,1,1.0,0,1.3902043104171753,155,0.0,1
1655,1,1.0,0,1.9941965341567993,156,1.0,1
1656,1,1.0,0,1.5732018947601318,157,1.0,1
1657,1,1.0,0,1.726199984550476,158,1.0,1
1658,1,1.0,0,1.5552021265029907,159,1.0,1
1659,1,1.0,0,2.0731959342956543,160,1.0,1
1660,1,1.0,0,1.402204155921936,161,1.0,1
1661,1,1.0,0,1.2912051677703857,162,0.0,1
1662,1,1.0,0,1.546202301979065,163,1.0,1
1663,1,0.0,0,1.799199104309082,164,0.0,1
1664,1,1.0,0,1.6222013235092163,165,1.0,1
1665,1,1.0,0,1.3922042846679688,166,1.0,1
1666,1,1.0,0,1.424203872680664,167,1.0,1
1667,1,1.0,0,1.9031977653503418,168,1.0,1
1668,1,1.0,0,1.4332036972045898,169,1.0,1
1669,1,1.0,0,1.561202049255371,170,1.0,1
1670,1,1.0,0,1.5922017097473145,171,1.0,1
1671,1,1.0,0,1.3432048559188843,172,1.0,1
1672,1,0.0,0,1.429203748703003,173,0.0,1
1673,1,1.0,0,1.450203537940979,174,1.0,1
1674,1,1.0,0,1.2652051448822021,175,1.0,1
1675,1,1.0,0,1.5352023839950562,176,1.0,1
1676,1,1.0,0,1.7821992635726929,177,1.0,1
1677,1,1.0,0,2.1381988525390625,178,1.0,1
1678,1,1.0,0,1.3072052001953125,179,1.0,1
1679,1,1.0,0,1.3722045421600342,180,1.0,1
1680,1,1.0,0,1.612201452255249,181,1.0,1
1681,1,1.0,0,1.4562034606933594,182,1.0,1
1682,1,1.0,0,1.5742019414901733,183,1.0,1
1683,1,1.0,0,1.207205057144165,184,1.0,1
1684,1,0.0,0,1.406204104423523,185,1.0,1
1685,1,0.0,0,1.1952049732208252,186,0.0,1
1686,1,1.0,0,1.4152039289474487,187,1.0,1
1687,1,1.0,0,1.2492051124572754,188,1.0,1
1688,1,1.0,0,1.336205005645752,189,1.0,1
1689,1,0.0,0,2.1001973152160645,190,0.0,1
1690,1,1.0,0,1.542202353477478,191,1.0,1
1691,1,1.0,0,1.7651994228363037,192,1.0,1
1692,1,1.0,0,1.3742045164108276,193,1.0,1
1693,1,1.0,0,1.3382049798965454,194,1.0,1
1694,1,1.0,0,1.8841979503631592,195,1.0,1
1695,1,1.0,0,1.3242051601409912,196,0.0,1
1696,1,0.0,0,1.2632051706314087,197,0.0,1
1697,1,1.0,0,1.6412010192871094,198,0.0,1
1698,1,1.0,0,1.4682033061981201,199,1.0,1
1699,1,1.0,0,1.2362051010131836,200,1.0,1
1700,1,1.0,0,1.3382049798965454,201,1.0,1
1701,1,1.0,0,1.3442049026489258,202,1.0,1
1702,1,1.0,0,1.4752031564712524,203,1.0,1
1703,1,1.0,0,1.32920503616333,204,1.0,1
1704,1,1.0,0,1.6802005767822266,205,1.0,1
1705,1,1.0,0,1.521202564239502,206,1.0,1
1706,1,1.0,0,1.4182039499282837,207,1.0,1
1707,1,1.0,0,1.4132039546966553,208,1.0,1
1708,1,1.0,0,1.1622049808502197,209,1.0,1
1709,1,1.0,0,1.407204031944275,210,1.0,1
1710,1,0.0,0,1.2632051706314087,211,0.0,1
1711,1,1.0,0,1.3702045679092407,212,1.0,1
1712,1,1.0,0,1.4432035684585571,213,1.0,1
1713,1,1.0,0,1.6352012157440186,214,1.0,1
1714,1,1.0,0,1.4912029504776,215,0.0,1
1715,1,1.0,0,1.6302012205123901,216,1.0,1
1716,1,1.0,0,1.8831980228424072,217,1.0,1
1717,1,0.0,0,1.4122040271759033,218,0.0,1
1718,1,1.0,0,1.3382049798965454,219,1.0,1
1719,1,1.0,0,1.2892051935195923,220,1.0,1
1720,1,1.0,0,1.5932016372680664,221,1.0,1
1721,1,1.0,0,1.6252012252807617,222,1.0,1
1722,1,1.0,0,1.3912042379379272,223,1.0,1
1723,1,1.0,0,1.7192001342773438,224,1.0,1
1724,1,1.0,0,1.6742006540298462,225,1.0,1
1725,1,0.0,0,1.6222013235092163,226,1.0,1
1726,1,0.0,0,1.4662033319473267,227,0.0,1
1727,1,0.0,0,1.3002052307128906,228,0.0,1
1728,1,1.0,0,1.3422049283981323,229,1.0,1
1729,1,1.0,0,1.278205156326294,230,1.0,1
1730,1,1.0,0,1.2952052354812622,231,1.0,1
1731,1,1.0,0,1.8681981563568115,232,1.0,1
1732,1,1.0,0,1.2622051239013672,233,1.0,1
1733,1,1.0,0,1.71120023727417,234,1.0,1
1734,1,0.0,0,1.424203872680664,235,0.0,1
1735,1,1.0,0,1.3702045679092407,236,1.0,1
1736,1,1.0,0,1.4752031564712524,237,1.0,1
1737,1,1.0,0,1.494202971458435,238,1.0,1
1738,1,1.0,0,1.244205117225647,239,1.0,1
1739,1,1.0,0,1.244205117225647,240,1.0,1
1740,1,1.0,0,1.305205225944519,241,1.0,1
1741,1,1.0,0,1.3452048301696777,242,1.0,1
1742,1,1.0,0,1.4972028732299805,243,1.0,1
1743,1,1.0,0,1.3102052211761475,244,1.0,1
1744,1,1.0,0,1.9471971988677979,245,1.0,1
1745,1,1.0,0,1.3002052307128906,246,1.0,1
1746,1,1.0,0,1.3982042074203491,247,1.0,1
1747,1,1.0,0,1.2702051401138306,248,1.0,1
1748,1,1.0,0,1.3972041606903076,249,1.0,1
1749,1,1.0,0,1.4152039289474487,250,0.0,1
1750,1,1.0,0,1.8161988258361816,251,1.0,1
1751,1,1.0,0,1.1682049036026,252,1.0,1
1752,1,1.0,0,1.797199010848999,253,1.0,1
1753,1,1.0,0,2.0121963024139404,254,1.0,1
1754,1,1.0,0,1.399204134941101,255,1.0,1
1755,1,1.0,0,1.9041976928710938,256,1.0,1
1756,1,1.0,0,1.6832005977630615,257,1.0,1
1757,1,1.0,0,1.2532050609588623,258,0.0,1
1758,1,1.0,0,2.1071975231170654,259,1.0,1
1759,1,1.0,0,1.9131975173950195,260,0.0,1
1760,1,0.0,0,1.5312024354934692,261,0.0,1
1761,1,1.0,0,1.609201431274414,262,1.0,1
1762,1,1.0,0,1.6422010660171509,263,1.0,1
1763,1,1.0,0,1.9281973838806152,264,1.0,1
1764,1,1.0,0,1.3502048254013062,265,1.0,1
1765,1,1.0,0,1.2802051305770874,266,1.0,1
1766,1,1.0,0,1.2882051467895508,267,1.0,1
1767,1,1.0,0,1.421203851699829,268,1.0,1
1768,1,1.0,0,1.5802018642425537,269,0.0,1
1769,1,1.0,0,1.399204134941101,270,0.0,1
1770,1,0.0,0,1.7451996803283691,271,0.0,1
1771,1,0.0,0,1.935197353363037,272,0.0,1
1772,1,0.0,0,1.7851991653442383,273,0.0,1
1773,1,1.0,0,1.4872030019760132,274,1.0,1
1774,1,1.0,0,1.2482050657272339,275,1.0,1
1775,1,1.0,0,1.2932051420211792,276,1.0,1
1776,1,1.0,0,1.4702032804489136,277,1.0,1
1777,1,1.0,0,1.4742032289505005,278,1.0,1
1778,1,1.0,0,1.8461984395980835,279,1.0,1
1779,1,1.0,0,1.498202919960022,280,1.0,1
1780,1,1.0,0,1.498202919960022,281,0.0,1
1781,1,1.0,0,1.984196662902832,282,1.0,1
1782,1,1.0,0,1.5522022247314453,283,1.0,1
1783,1,1.0,0,1.2342050075531006,284,1.0,1
1784,1,1.0,0,1.539202332496643,285,1.0,1
1785,1,1.0,0,1.7381998300552368,286,1.0,1
1786,1,1.0,0,1.2632051706314087,287,1.0,1
1787,1,1.0,0,1.275205135345459,288,0.0,1
1788,1,0.0,0,2.1121978759765625,289,0.0,1
1789,1,0.0,0,2.0641956329345703,290,0.0,1
1790,1,1.0,0,1.5182026624679565,291,1.0,1
1791,1,1.0,0,1.6622008085250854,292,0.0,1
1792,1,0.0,0,1.4482035636901855,293,1.0,1
1793,1,1.0,0,1.207205057144165,294,1.0,1
1794,1,1.0,0,1.5252025127410889,295,0.0,1
1795,1,0.0,0,1.2122050523757935,296,0.0,1
1796,1,1.0,0,2.0971970558166504,297,1.0,1
1797,1,0.0,0,2.1341986656188965,298,0.0,1
1798,1,1.0,0,1.564202070236206,299,1.0,1
1799,1,1.0,0,1.7062002420425415,300,1.0,1
1800,1,1.0,0,1.332205057144165,301,1.0,1
1801,1,1.0,0,1.707200288772583,302,1.0,1
1802,1,0.0,0,1.3132052421569824,303,1.0,1
1803,1,1.0,0,1.68220055103302,304,1.0,1
1804,1,1.0,0,1.726199984550476,305,1.0,1
1805,1,1.0,0,1.981196641921997,306,1.0,1
1806,1,0.0,0,1.4832030534744263,307,0.0,1
1807,1,1.0,0,1.3442049026489258,308,0.0,1
1808,1,0.0,0,1.8871979713439941,309,0.0,1
1809,1,0.0,0,1.4402036666870117,310,0.0,1
1810,1,0.0,0,1.8161988258361816,311,1.0,1
1811,1,0.0,0,1.5992016792297363,312,0.0,1
1812,1,0.0,0,1.6982003450393677,313,0.0,1
1813,1,0.0,0,1.3942042589187622,314,0.0,1
1814,1,1.0,0,1.6992003917694092,315,0.0,1
1815,1,1.0,0,1.793199062347412,316,0.0,1
1816,1,1.0,0,1.2902052402496338,317,0.0,1
1817,1,0.0,0,1.5762019157409668,318,0.0,1
1818,1,0.0,0,1.4452035427093506,319,0.0,1
1819,1,0.0,0,1.1822049617767334,320,0.0,1
1820,1,0.0,0,1.5792019367218018,321,0.0,1
1821,1,0.0,0,1.5852017402648926,322,0.0,1
1822,1,1.0,0,1.3572046756744385,323,1.0,1
1823,1,0.0,0,1.5012028217315674,324,0.0,1
1824,1,1.0,0,1.9601969718933105,325,1.0,1
1825,1,1.0,0,1.4152039289474487,326,1.0,1
1826,1,1.0,0,1.9551970958709717,327,1.0,1
1827,1,1.0,0,1.3282051086425781,328,1.0,1
1828,1,1.0,0,1.7831993103027344,329,1.0,1
1829,1,1.0,0,1.5132026672363281,330,1.0,1
1830,1,1.0,0,1.9701968431472778,331,1.0,1
1831,1,1.0,0,1.181204915046692,332,1.0,1
1832,1,1.0,0,1.8561983108520508,333,1.0,1
1833,1,1.0,0,1.567202091217041,334,0.0,1
1834,1,1.0,0,1.6872005462646484,335,1.0,1
1835,1,1.0,0,1.4672032594680786,336,1.0,1
1836,1,1.0,0,2.0451958179473877,337,0.0,1
1837,1,0.0,0,2.0111963748931885,338,0.0,1
1838,1,0.0,0,1.4172039031982422,339,0.0,1
1839,1,1.0,0,1.4902030229568481,340,1.0,1
1840,1,1.0,0,1.312205195426941,341,1.0,1
1841,1,1.0,0,1.469203233718872,342,1.0,1
1842,1,1.0,0,1.5602021217346191,343,1.0,1
1843,1,1.0,0,1.454203486442566,344,1.0,1
1844,1,1.0,0,1.7291998863220215,345,1.0,1
1845,1,1.0,0,1.3962042331695557,346,1.0,1
1846,1,1.0,0,1.407204031944275,347,1.0,1
1847,1,1.0,0,1.6492009162902832,348,1.0,1
1848,1,1.0,0,1.5752019882202148,349,1.0,1
1849,1,1.0,0,1.660200834274292,350,1.0,1
1850,1,1.0,0,1.8761980533599854,351,1.0,1
1851,1,1.0,0,1.7102001905441284,352,1.0,1
1852,1,1.0,0,1.7801992893218994,353,1.0,1
1853,1,1.0,0,1.311205267906189,354,1.0,1
1854,1,0.0,0,1.1452049016952515,355,0.0,1
1855,1,1.0,0,1.564202070236206,356,1.0,1
1856,1,0.0,0,1.3782044649124146,357,0.0,1
1857,1,1.0,0,1.54320228099823,358,0.0,1
1858,1,0.0,0,2.1041975021362305,359,1.0,1
1859,1,0.0,0,1.8821979761123657,360,0.0,1
1860,1,1.0,0,1.3492047786712646,361,1.0,1
1861,1,1.0,0,1.2482050657272339,362,1.0,1
1862,1,1.0,0,2.3752100467681885,363,1.0,1
1863,1,1.0,0,1.939197301864624,364,0.0,1
1864,1,0.0,0,1.9041976928710938,365,0.0,1
1865,1,0.0,0,2.1071975231170654,366,0.0,1
1866,1,1.0,0,1.567202091217041,367,1.0,1
1867,1,1.0,0,1.4172039031982422,368,1.0,1
1868,1,1.0,0,1.5572021007537842,369,1.0,1
1869,1,1.0,0,1.2552051544189453,370,1.0,1
1870,1,1.0,0,2.251204252243042,371,1.0,1
1871,1,1.0,0,1.451203465461731,372,1.0,1
1872,1,1.0,0,1.615201473236084,373,1.0,1
1873,1,1.0,0,1.9451971054077148,374,1.0,1
1874,1,1.0,0,2.301206588745117,375,0.0,1
1875,1,0.0,0,1.2422051429748535,376,0.0,1
1876,1,1.0,0,1.4642033576965332,377,1.0,1
1877,1,1.0,0,1.3952041864395142,378,1.0,1
1878,1,1.0,0,1.211205005645752,379,1.0,1
1879,1,1.0,0,1.5582021474838257,380,1.0,1
1880,1,1.0,0,1.726199984550476,381,1.0,1
1881,1,1.0,0,1.5272024869918823,382,1.0,1
1882,1,1.0,0,1.3962042331695557,383,1.0,1
1883,1,1.0,0,1.2892051935195923,384,1.0,1
1884,1,1.0,0,1.6012015342712402,385,1.0,1
1885,1,1.0,0,1.2542051076889038,386,1.0,1
1886,1,1.0,0,1.5572021007537842,387,0.0,1
1887,1,1.0,0,2.1071975231170654,388,1.0,1
1888,1,1.0,0,1.5302025079727173,389,1.0,1
1889,1,1.0,0,1.4392036199569702,390,1.0,1
1890,1,1.0,0,1.4452035427093506,391,1.0,1
1891,1,1.0,0,1.403204083442688,392,1.0,1
1892,1,1.0,0,1.5122027397155762,393,1.0,1
1893,1,1.0,0,1.2632051706314087,394,1.0,1
1894,1,1.0,0,1.611201524734497,395,1.0,1
1895,1,0.0,0,1.2342050075531006,396,0.0,1
1896,1,1.0,0,1.7052001953125,397,1.0,1
1897,1,1.0,0,1.4592033624649048,398,1.0,1
1898,1,1.0,0,1.6872005462646484,399,1.0,1
1899,1,0.0,0,1.704200267791748,400,0.0,1
1900,1,1.0,0,1.9961965084075928,401,1.0,1
1901,1,1.0,0,1.5322024822235107,402,1.0,1
1902,1,1.0,0,1.1982049942016602,403,1.0,1
1903,1,1.0,0,2.3552091121673584,404,1.0,1
1904,1,1.0,0,1.4862030744552612,405,1.0,1
1905,1,1.0,0,1.495202898979187,406,1.0,1
1906,1,1.0,0,1.849198341369629,407,1.0,1
1907,1,0.0,0,1.9031977653503418,408,0.0,1
1908,1,1.0,0,1.4602034091949463,409,1.0,1
1909,1,1.0,0,1.275205135345459,410,1.0,1
1910,1,1.0,0,1.274205207824707,411,1.0,1
1911,1,1.0,0,1.4102040529251099,412,1.0,1
1912,1,1.0,0,1.2402050495147705,413,1.0,1
1913,1,1.0,0,1.4842031002044678,414,1.0,1
1914,1,1.0,0,1.2952052354812622,415,1.0,1
1915,1,1.0,0,1.3522047996520996,416,1.0,1
1916,1,1.0,0,1.8211987018585205,417,1.0,1
1917,1,1.0,0,1.2182049751281738,418,1.0,1
1918,1,1.0,0,1.1922049522399902,419,1.0,1
1919,1,1.0,0,1.4492034912109375,420,1.0,1
1920,1,0.0,0,1.305205225944519,421,0.0,1
1921,1,1.0,0,1.336205005645752,422,1.0,1
1922,1,1.0,0,1.4642033576965332,423,1.0,1
1923,1,1.0,0,1.2822051048278809,424,1.0,1
1924,1,1.0,0,1.5442023277282715,425,1.0,1
1925,1,1.0,0,1.8371984958648682,426,1.0,1
1926,1,1.0,0,1.939197301864624,427,1.0,1
1927,1,1.0,0,1.275205135345459,428,1.0,1
1928,1,1.0,0,1.6682007312774658,429,1.0,1
1929,1,1.0,0,1.3712044954299927,430,1.0,1
1930,1,1.0,0,1.2962051630020142,431,1.0,1
1931,1,1.0,0,1.2592051029205322,432,1.0,1
1932,1,1.0,0,1.2942051887512207,433,1.0,1
1933,1,1.0,0,1.4572033882141113,434,1.0,1
1934,1,1.0,0,1.5182026624679565,435,1.0,1
1935,1,1.0,0,1.7311999797821045,436,1.0,1
1936,1,1.0,0,1.6682007312774658,437,0.0,1
1937,1,0.0,0,1.7501996755599976,438,0.0,1
1938,1,1.0,0,2.0971970558166504,439,1.0,1
1939,1,0.0,0,1.214205026626587,440,0.0,1
1940,1,1.0,0,2.036195993423462,441,1.0,1
1941,1,1.0,0,1.5292024612426758,442,1.0,1
1942,1,1.0,0,1.4192038774490356,443,1.0,1
1943,1,1.0,0,1.3182052373886108,444,1.0,1
1944,1,1.0,0,1.8821979761123657,445,1.0,1
1945,1,1.0,0,1.703200340270996,446,1.0,1
1946,1,1.0,0,1.472203254699707,447,1.0,1
1947,1,1.0,0,1.275205135345459,448,1.0,1
1948,1,1.0,0,1.5292024612426758,449,1.0,1
1949,1,1.0,0,1.7281999588012695,450,1.0,1
1950,1,1.0,0,1.4642033576965332,451,1.0,1
1951,1,1.0,0,1.6032016277313232,452,1.0,1
1952,1,1.0,0,1.5622020959854126,453,1.0,1
1953,1,1.0,0,1.7951991558074951,454,1.0,1
1954,1,1.0,0,1.3572046756744385,455,0.0,1
1955,1,1.0,0,1.2912051677703857,456,0.0,1
1956,1,1.0,0,1.5992016792297363,457,1.0,1
1957,1,1.0,0,1.4552034139633179,458,0.0,1
1958,1,0.0,0,1.4412035942077637,459,0.0,1
1959,1,1.0,0,1.3742045164108276,460,1.0,1
1960,1,1.0,0,1.7142001390457153,461,1.0,1
1961,1,1.0,0,1.7281999588012695,462,1.0,1
1962,1,1.0,0,1.5012028217315674,463,1.0,1
1963,1,1.0,0,1.752199649810791,464,1.0,1
1964,1,1.0,0,1.3712044954299927,465,1.0,1
1965,1,1.0,0,1.2302050590515137,466,1.0,1
1966,1,1.0,0,1.3282051086425781,467,1.0,1
1967,1,1.0,0,1.6212012767791748,468,1.0,1
1968,1,1.0,0,1.359204649925232,469,1.0,1
1969,1,1.0,0,1.5232025384902954,470,1.0,1
1970,1,1.0,0,1.407204031944275,471,1.0,1
1971,1,1.0,0,1.3902043104171753,472,0.0,1
1972,1,1.0,0,1.3432048559188843,473,1.0,1
1973,1,1.0,0,1.399204134941101,474,0.0,1
1974,1,0.0,0,1.3212051391601562,475,0.0,1
1975,1,1.0,0,1.5442023277282715,476,1.0,1
1976,1,1.0,0,1.3002052307128906,477,1.0,1
1977,1,1.0,0,1.4482035636901855,478,1.0,1
1978,1,1.0,0,1.406204104423523,479,1.0,1
1979,1,1.0,0,1.5452022552490234,480,1.0,1
1980,1,1.0,0,1.4172039031982422,481,1.0,1
1981,1,1.0,0,1.6652007102966309,482,1.0,1
1982,1,1.0,0,2.3242077827453613,483,1.0,1
1983,1,1.0,0,1.7272000312805176,484,1.0,1
1984,1,1.0,0,1.7981990575790405,485,1.0,1
1985,1,1.0,0,1.333204984664917,486,1.0,1
1986,1,1.0,0,1.5732018947601318,487,1.0,1
1987,1,1.0,0,1.708200216293335,488,1.0,1
1988,1,1.0,0,1.3832043409347534,489,1.0,1
1989,1,1.0,0,1.3432048559188843,490,1.0,1
1990,1,1.0,0,1.5312024354934692,491,1.0,1
1991,1,1.0,0,1.9941965341567993,492,0.0,1
1992,1,0.0,0,1.2302050590515137,493,0.0,1
1993,1,1.0,0,1.7361998558044434,494,1.0,1
1994,1,1.0,0,1.6292011737823486,495,1.0,1
1995,1,1.0,0,1.4342037439346313,496,1.0,1
1996,1,1.0,0,1.5302025079727173,497,1.0,1
1997,1,0.0,0,2.4232122898101807,498,0.0,1
1998,1,1.0,0,1.3472048044204712,499,1.0,1
1999,1,1.0,0,1.8821979761123657,500,1.0,1
2000,1,1.0,1,1.2242050170898438,1,1.0,1
2001,1,1.0,1,1.9601969718933105,2,1.0,1
2002,1,1.0,1,1.5112026929855347,3,0.0,1
2003,1,0.0,1,1.4422036409378052,4,0.0,1
2004,1,0.0,1,1.748199701309204,5,1.0,1
2005,1,0.0,1,1.7701994180679321,6,0.0,1
2006,1,0.0,1,1.889197826385498,7,0.0,1
2007,1,1.0,1,1.5402023792266846,8,0.0,1
2008,1,0.0,1,1.208204984664917,9,0.0,1
2009,1,0.0,1,1.5702019929885864,10,1.0,1
2010,1,0.0,1,1.5042028427124023,11,0.0,1
2011,1,0.0,1,1.8611981868743896,12,0.0,1
2012,1,1.0,1,1.870198130607605,13,0.0,1
2013,1,0.0,1,2.3292078971862793,14,0.0,1
2014,1,1.0,1,1.428203821182251,15,1.0,1
2015,1,0.0,1,1.281205177307129,16,0.0,1
2016,1,1.0,1,1.447203516960144,17,0.0,1
2017,1,0.0,1,1.7921991348266602,18,0.0,1
2018,1,0.0,1,1.9171974658966064,19,0.0,1
2019,1,0.0,1,1.709200143814087,20,0.0,1
2020,1,1.0,1,2.477214813232422,21,1.0,1
2021,1,1.0,1,1.5282025337219238,22,0.0,1
2022,1,0.0,1,1.7182000875473022,23,0.0,1
2023,1,0.0,1,1.332205057144165,24,0.0,1
2024,1,1.0,1,1.5182026624679565,25,0.0,1
2025,1,1.0,1,1.3232051134109497,26,1.0,1
2026,1,1.0,1,1.473203182220459,27,1.0,1
2027,1,1.0,1,1.3152052164077759,28,1.0,1
2028,1,1.0,1,1.3632045984268188,29,1.0,1
2029,1,1.0,1,1.539202332496643,30,1.0,1
2030,1,1.0,1,1.4562034606933594,31,1.0,1
2031,1,1.0,1,1.6552009582519531,32,0.0,1
2032,1,0.0,1,1.6842005252838135,33,0.0,1
2033,1,1.0,1,1.498202919960022,34,1.0,1
2034,1,1.0,1,1.205204963684082,35,1.0,1
2035,1,0.0,1,1.5062028169631958,36,0.0,1
2036,1,1.0,1,1.3352049589157104,37,1.0,1
2037,1,0.0,1,1.5092027187347412,38,0.0,1
2038,1,1.0,1,1.4312037229537964,39,1.0,1
2039,1,1.0,1,1.4622033834457397,40,1.0,1
2040,1,1.0,1,1.2772051095962524,41,1.0,1
2041,1,1.0,1,1.851198434829712,42,1.0,1
2042,1,1.0,1,1.4882030487060547,43,1.0,1
2043,1,1.0,1,1.2602051496505737,44,1.0,1
2044,1,1.0,1,1.5362024307250977,45,1.0,1
2045,1,1.0,1,1.3852043151855469,46,1.0,1
2046,1,1.0,1,1.7002003192901611,47,0.0,1
2047,1,0.0,1,1.3062052726745605,48,1.0,1
2048,1,0.0,1,1.611201524734497,49,0.0,1
2049,1,1.0,1,1.8801980018615723,50,1.0,1
2050,1,1.0,1,1.9681968688964844,51,1.0,1
2051,1,0.0,1,1.7321999073028564,52,0.0,1
2052,1,1.0,1,1.6052014827728271,53,1.0,1
2053,1,1.0,1,1.6472010612487793,54,0.0,1
2054,1,0.0,1,1.7002003192901611,55,0.0,1
2055,1,1.0,1,1.9681968688964844,56,1.0,1
2056,1,1.0,1,1.664200782775879,57,1.0,1
2057,1,1.0,1,1.73419988155365,58,0.0,1
2058,1,0.0,1,1.18020498752594,59,0.0,1
2059,1,1.0,1,1.3032052516937256,60,1.0,1
2060,1,1.0,1,1.4892029762268066,61,1.0,1
2061,1,1.0,1,1.2792052030563354,62,0.0,1
2062,1,0.0,1,1.3242051601409912,63,0.0,1
2063,1,1.0,1,1.5932016372680664,64,0.0,1
2064,1,0.0,1,1.4912029504776,65,0.0,1
2065,1,0.0,1,1.54320228099823,66,1.0,1
2066,1,0.0,1,1.6722006797790527,67,1.0,1
2067,1,0.0,1,1.5412023067474365,68,0.0,1
2068,1,0.0,1,1.6352012157440186,69,1.0,1
2069,1,0.0,1,1.7441997528076172,70,1.0,1
2070,1,0.0,1,1.495202898979187,71,0.0,1
2071,1,0.0,1,1.6102014780044556,72,0.0,1
2072,1,0.0,1,1.1892049312591553,73,0.0,1
2073,1,0.0,1,1.3862043619155884,74,0.0,1
2074,1,1.0,1,1.447203516960144,75,1.0,1
2075,1,0.0,1,1.446203589439392,76,0.0,1
2076,1,1.0,1,1.1632049083709717,77,0.0,1
2077,1,1.0,1,1.4082040786743164,78,1.0,1
2078,1,0.0,1,1.2992051839828491,79,1.0,1
2079,1,0.0,1,1.238205075263977,80,1.0,1
2080,1,1.0,1,1.8361985683441162,81,1.0,1
2081,1,1.0,1,2.1001973152160645,82,1.0,1
2082,1,1.0,1,1.2702051401138306,83,1.0,1
2083,1,1.0,1,1.6262012720108032,84,0.0,1
2084,1,0.0,1,1.4042041301727295,85,0.0,1
2085,1,0.0,1,1.2002049684524536,86,0.0,1
2086,1,1.0,1,1.748199701309204,87,0.0,1
2087,1,0.0,1,1.753199577331543,88,1.0,1
2088,1,0.0,1,1.2222050428390503,89,0.0,1
2089,1,0.0,1,1.3012051582336426,90,0.0,1
2090,1,1.0,1,1.1762049198150635,91,1.0,1
2091,1,1.0,1,1.3782044649124146,92,1.0,1
2092,1,1.0,1,1.3932042121887207,93,1.0,1
2093,1,0.0,1,1.362204670906067,94,0.0,1
2094,1,1.0,1,1.4232038259506226,95,0.0,1
2095,1,1.0,1,1.524202585220337,96,1.0,1
2096,1,1.0,1,1.5542021989822388,97,1.0,1
2097,1,1.0,1,2.1692004203796387,98,0.0,1
2098,1,0.0,1,1.3212051391601562,99,0.0,1
2099,1,0.0,1,1.359204649925232,100,1.0,1
2100,1,0.0,1,1.268205165863037,101,0.0,1
2101,1,0.0,1,1.847198486328125,102,0.0,1
2102,1,0.0,1,1.4792031049728394,103,0.0,1
2103,1,1.0,1,1.2952052354812622,104,1.0,1
2104,1,1.0,1,2.0141963958740234,105,1.0,1
2105,1,1.0,1,1.6902004480361938,106,1.0,1
2106,1,1.0,1,1.4162039756774902,107,0.0,1
2107,1,1.0,1,1.355204701423645,108,0.0,1
2108,1,0.0,1,1.8991978168487549,109,0.0,1
2109,1,0.0,1,1.9801967144012451,110,1.0,1
2110,1,0.0,1,1.6202013492584229,111,0.0,1
2111,1,1.0,1,1.9681968688964844,112,0.0,1
2112,1,1.0,1,1.4662033319473267,113,0.0,1
2113,1,0.0,1,1.5662020444869995,114,0.0,1
2114,1,0.0,1,1.7162001132965088,115,0.0,1
2115,1,0.0,1,1.2992051839828491,116,1.0,1
2116,1,0.0,1,1.2582051753997803,117,0.0,1
2117,1,0.0,1,1.498202919960022,118,0.0,1
2118,1,0.0,1,1.1512049436569214,119,1.0,1
2119,1,0.0,1,1.5602021217346191,120,0.0,1
2120,1,0.0,1,1.3912042379379272,121,0.0,1
2121,1,0.0,1,1.2002049684524536,122,1.0,1
2122,1,1.0,1,1.2302050590515137,123,0.0,1
2123,1,0.0,1,1.4782031774520874,124,1.0,1
2124,1,0.0,1,1.1502048969268799,125,1.0,1
2125,1,0.0,1,1.2982051372528076,126,1.0,1
2126,1,0.0,1,1.1652048826217651,127,0.0,1
2127,1,0.0,1,1.309205174446106,128,0.0,1
2128,1,1.0,1,2.291206121444702,129,1.0,1
2129,1,1.0,1,1.7981990575790405,130,1.0,1
2130,1,1.0,1,1.305205225944519,131,0.0,1
2131,1,1.0,1,1.5792019367218018,132,1.0,1
2132,1,1.0,1,1.3032052516937256,133,1.0,1
2133,1,1.0,1,1.3252050876617432,134,0.0,1
2134,1,0.0,1,1.8531982898712158,135,0.0,1
2135,1,0.0,1,1.3452048301696777,136,0.0,1
2136,1,1.0,1,2.0221962928771973,137,1.0,1
2137,1,1.0,1,1.3252050876617432,138,1.0,1
2138,1,1.0,1,1.432203769683838,139,0.0,1
2139,1,0.0,1,1.7651994228363037,140,1.0,1
2140,1,0.0,1,1.7192001342773438,141,0.0,1
2141,1,1.0,1,1.6812005043029785,142,0.0,1
2142,1,1.0,1,1.6252012252807617,143,1.0,1
2143,1,1.0,1,1.5192025899887085,144,1.0,1
2144,1,1.0,1,1.826198697090149,145,1.0,1
2145,1,1.0,1,1.4492034912109375,146,1.0,1
2146,1,1.0,1,1.9031977653503418,147,1.0,1
2147,1,1.0,1,1.4802031517028809,148,1.0,1
2148,1,1.0,1,1.7272000312805176,149,1.0,1
2149,1,1.0,1,1.3742045164108276,150,1.0,1
2150,1,1.0,1,1.3182052373886108,151,0.0,1
2151,1,1.0,1,1.362204670906067,152,0.0,1
2152,1,0.0,1,1.8571982383728027,153,0.0,1
2153,1,0.0,1,1.4302037954330444,154,0.0,1
2154,1,1.0,1,1.3302050828933716,155,1.0,1
2155,1,1.0,1,1.3132052421569824,156,1.0,1
2156,1,1.0,1,1.354204773902893,157,1.0,1
2157,1,1.0,1,1.2702051401138306,158,1.0,1
2158,1,0.0,1,1.3682045936584473,159,0.0,1
2159,1,1.0,1,1.3942042589187622,160,1.0,1
2160,1,1.0,1,1.5802018642425537,161,1.0,1
2161,1,1.0,1,1.2702051401138306,162,1.0,1
2162,1,1.0,1,1.6722006797790527,163,0.0,1
2163,1,1.0,1,1.893197774887085,164,1.0,1
2164,1,1.0,1,1.305205225944519,165,1.0,1
2165,1,1.0,1,1.432203769683838,166,1.0,1
2166,1,1.0,1,1.6742006540298462,167,0.0,1
2167,1,1.0,1,1.8231987953186035,168,0.0,1
2168,1,1.0,1,1.3062052726745605,169,1.0,1
2169,1,1.0,1,1.3862043619155884,170,1.0,1
2170,1,1.0,1,1.1602048873901367,171,0.0,1
2171,1,0.0,1,1.3252050876617432,172,0.0,1
2172,1,1.0,1,1.7901991605758667,173,0.0,1
2173,1,1.0,1,1.567202091217041,174,1.0,1
2174,1,1.0,1,1.5182026624679565,175,1.0,1
2175,1,1.0,1,1.238205075263977,176,1.0,1
2176,1,1.0,1,1.6672008037567139,177,1.0,1
2177,1,1.0,1,1.4172039031982422,178,1.0,1
2178,1,0.0,1,2.0801963806152344,179,0.0,1
2179,1,1.0,1,1.4592033624649048,180,1.0,1
2180,1,1.0,1,1.1512049436569214,181,1.0,1
2181,1,1.0,1,1.3832043409347534,182,0.0,1
2182,1,0.0,1,1.5402023792266846,183,1.0,1
2183,1,0.0,1,1.5622020959854126,184,0.0,1
2184,1,1.0,1,1.5952017307281494,185,1.0,1
2185,1,1.0,1,1.569201946258545,186,1.0,1
2186,1,1.0,1,1.6842005252838135,187,1.0,1
2187,1,1.0,1,1.5572021007537842,188,1.0,1
2188,1,1.0,1,1.6002016067504883,189,1.0,1
2189,1,1.0,1,1.454203486442566,190,1.0,1
2190,1,1.0,1,1.4682033061981201,191,1.0,1
2191,1,1.0,1,1.8111989498138428,192,1.0,1
2192,1,1.0,1,1.4042041301727295,193,1.0,1
2193,1,1.0,1,1.5092027187347412,194,0.0,1
2194,1,0.0,1,1.1622049808502197,195,0.0,1
2195,1,1.0,1,1.7611994743347168,196,0.0,1
2196,1,0.0,1,1.5632020235061646,197,0.0,1
2197,1,0.0,1,1.5572021007537842,198,0.0,1
2198,1,0.0,1,1.5382024049758911,199,0.0,1
2199,1,1.0,1,2.267204999923706,200,1.0,1
2200,1,1.0,1,1.5622020959854126,201,1.0,1
2201,1,1.0,1,1.1662049293518066,202,1.0,1
2202,1,1.0,1,1.2792052030563354,203,1.0,1
2203,1,1.0,1,1.3702045679092407,204,1.0,1
2204,1,1.0,1,1.4372036457061768,205,1.0,1
2205,1,1.0,1,1.5572021007537842,206,1.0,1
2206,1,1.0,1,1.2792052030563354,207,1.0,1
2207,1,1.0,1,1.4522035121917725,208,1.0,1
2208,1,1.0,1,1.5082027912139893,209,1.0,1
2209,1,1.0,1,1.3532047271728516,210,1.0,1
2210,1,1.0,1,1.5452022552490234,211,0.0,1
2211,1,1.0,1,1.312205195426941,212,1.0,1
2212,1,1.0,1,1.2262051105499268,213,1.0,1
2213,1,1.0,1,1.495202898979187,214,1.0,1
2214,1,0.0,1,2.023196220397949,215,1.0,1
2215,1,1.0,1,1.4882030487060547,216,0.0,1
2216,1,0.0,1,1.799199104309082,217,1.0,1
2217,1,0.0,1,1.2942051887512207,218,0.0,1
2218,1,0.0,1,1.477203130722046,219,1.0,1
2219,1,0.0,1,1.8521983623504639,220,0.0,1
2220,1,0.0,1,1.521202564239502,221,0.0,1
2221,1,1.0,1,1.2252050638198853,222,1.0,1
2222,1,1.0,1,1.202204942703247,223,0.0,1
2223,1,0.0,1,1.8551983833312988,224,0.0,1
2224,1,1.0,1,1.7701994180679321,225,1.0,1
2225,1,1.0,1,1.4342037439346313,226,0.0,1
2226,1,1.0,1,2.0441958904266357,227,0.0,1
2227,1,1.0,1,1.6242012977600098,228,1.0,1
2228,1,1.0,1,1.547202229499817,229,0.0,1
2229,1,0.0,1,2.3652095794677734,230,0.0,1
2230,1,1.0,1,1.4432035684585571,231,1.0,1
2231,1,1.0,1,1.354204773902893,232,1.0,1
2232,1,1.0,1,1.5052027702331543,233,1.0,1
2233,1,1.0,1,1.2872052192687988,234,1.0,1
2234,1,1.0,1,1.4622033834457397,235,0.0,1
2235,1,1.0,1,1.6232013702392578,236,1.0,1
2236,1,1.0,1,1.3572046756744385,237,1.0,1
2237,1,1.0,1,1.4592033624649048,238,0.0,1
2238,1,1.0,1,1.9481971263885498,239,1.0,1
2239,1,1.0,1,1.3302050828933716,240,1.0,1
2240,1,1.0,1,1.6492009162902832,241,0.0,1
2241,1,0.0,1,1.8191988468170166,242,1.0,1
2242,1,0.0,1,1.6442010402679443,243,1.0,1
2243,1,0.0,1,1.3402049541473389,244,1.0,1
2244,1,0.0,1,1.3432048559188843,245,0.0,1
2245,1,1.0,1,2.0541958808898926,246,1.0,1
2246,1,1.0,1,1.5232025384902954,247,1.0,1
2247,1,1.0,1,1.302205204963684,248,1.0,1
2248,1,1.0,1,1.707200288772583,249,0.0,1
2249,1,1.0,1,2.222202777862549,250,0.0,1
2250,1,0.0,1,1.4872030019760132,251,0.0,1
2251,1,0.0,1,1.5072027444839478,252,1.0,1
2252,1,1.0,1,1.8811979293823242,253,0.0,1
2253,1,0.0,1,1.9071977138519287,254,0.0,1
2254,1,0.0,1,1.447203516960144,255,0.0,1
2255,1,0.0,1,1.3702045679092407,256,1.0,1
2256,1,0.0,1,1.1942050457000732,257,1.0,1
2257,1,0.0,1,1.1652048826217651,258,1.0,1
2258,1,0.0,1,1.3972041606903076,259,0.0,1
2259,1,0.0,1,2.1391990184783936,260,0.0,1
2260,1,0.0,1,1.4362037181854248,261,0.0,1
2261,1,1.0,1,1.3692045211791992,262,1.0,1
2262,1,1.0,1,1.4142040014266968,263,1.0,1
2263,1,1.0,1,1.2972052097320557,264,1.0,1
2264,1,1.0,1,1.709200143814087,265,1.0,1
2265,1,1.0,1,1.5912017822265625,266,0.0,1
2266,1,1.0,1,1.2282050848007202,267,0.0,1
2267,1,0.0,1,1.565201997756958,268,0.0,1
2268,1,0.0,1,1.6852004528045654,269,0.0,1
2269,1,1.0,1,1.3062052726745605,270,1.0,1
2270,1,1.0,1,1.359204649925232,271,1.0,1
2271,1,1.0,1,1.2332050800323486,272,1.0,1
2272,1,1.0,1,1.3792043924331665,273,1.0,1
2273,1,1.0,1,1.3882043361663818,274,0.0,1
2274,1,1.0,1,1.7721993923187256,275,1.0,1
2275,1,1.0,1,1.5722019672393799,276,1.0,1
2276,1,1.0,1,1.701200246810913,277,1.0,1
2277,1,1.0,1,1.3832043409347534,278,1.0,1
2278,1,1.0,1,1.3722045421600342,279,0.0,1
2279,1,1.0,1,1.4522035121917725,280,1.0,1
2280,1,1.0,1,2.498215675354004,281,1.0,1
2281,1,1.0,1,1.3302050828933716,282,1.0,1
2282,1,1.0,1,1.5962016582489014,283,1.0,1
2283,1,1.0,1,1.561202049255371,284,1.0,1
2284,1,1.0,1,1.1992050409317017,285,0.0,1
2285,1,1.0,1,1.7831993103027344,286,1.0,1
2286,1,1.0,1,1.4152039289474487,287,1.0,1
2287,1,1.0,1,1.6362011432647705,288,0.0,1
2288,1,0.0,1,1.4192038774490356,289,1.0,1
2289,1,1.0,1,1.6502009630203247,290,1.0,1
2290,1,1.0,1,1.7142001390457153,291,0.0,1
2291,1,0.0,1,1.4582034349441528,292,1.0,1
2292,1,0.0,1,1.4832030534744263,293,1.0,1
2293,1,0.0,1,1.3352049589157104,294,0.0,1
2294,1,0.0,1,1.476203203201294,295,1.0,1
2295,1,0.0,1,1.5282025337219238,296,0.0,1
2296,1,1.0,1,1.751199722290039,297,1.0,1
2297,1,1.0,1,1.4142040014266968,298,0.0,1
2298,1,0.0,1,1.564202070236206,299,0.0,1
2299,1,1.0,1,1.7791993618011475,300,0.0,1
2300,1,0.0,1,2.3722100257873535,301,1.0,1
2301,1,0.0,1,1.336205005645752,302,1.0,1
2302,1,0.0,1,1.5602021217346191,303,1.0,1
2303,1,0.0,1,1.238205075263977,304,1.0,1
2304,1,0.0,1,1.3172051906585693,305,0.0,1
2305,1,1.0,1,1.3532047271728516,306,1.0,1
2306,1,1.0,1,1.8851978778839111,307,0.0,1
2307,1,1.0,1,1.8341985940933228,308,0.0,1
2308,1,1.0,1,1.6972002983093262,309,1.0,1
2309,1,1.0,1,1.3382049798965454,310,1.0,1
2310,1,1.0,1,1.7281999588012695,311,1.0,1
2311,1,0.0,1,1.2832051515579224,312,1.0,1
2312,1,0.0,1,1.5722019672393799,313,1.0,1
2313,1,0.0,1,2.040195941925049,314,1.0,1
2314,1,1.0,1,1.9321973323822021,315,1.0,1
2315,1,0.0,1,1.4272037744522095,316,1.0,1
2316,1,1.0,1,1.9751968383789062,317,0.0,1
2317,1,0.0,1,1.3042051792144775,318,0.0,1
2318,1,0.0,1,1.818198800086975,319,1.0,1
2319,1,0.0,1,1.2212049961090088,320,1.0,1
2320,1,0.0,1,1.2372050285339355,321,0.0,1
2321,1,0.0,1,1.5222026109695435,322,1.0,1
2322,1,0.0,1,1.3272050619125366,323,0.0,1
2323,1,1.0,1,1.5002028942108154,324,1.0,1
2324,1,1.0,1,1.5872018337249756,325,1.0,1
2325,1,1.0,1,1.7152001857757568,326,1.0,1
2326,1,1.0,1,1.5312024354934692,327,1.0,1
2327,1,1.0,1,1.2862051725387573,328,1.0,1
2328,1,1.0,1,1.5232025384902954,329,1.0,1
2329,1,1.0,1,1.2522051334381104,330,0.0,1
2330,1,0.0,1,1.4012041091918945,331,0.0,1
2331,1,0.0,1,2.28320574760437,332,1.0,1
2332,1,0.0,1,1.6032016277313232,333,0.0,1
2333,1,0.0,1,1.870198130607605,334,0.0,1
2334,1,0.0,1,1.7321999073028564,335,1.0,1
2335,1,0.0,1,1.1922049522399902,336,0.0,1
2336,1,0.0,1,1.4742032289505005,337,0.0,1
2337,1,0.0,1,1.4432035684585571,338,1.0,1
2338,1,0.0,1,1.2272050380706787,339,1.0,1
2339,1,0.0,1,1.1922049522399902,340,1.0,1
2340,1,0.0,1,2.1712005138397217,341,1.0,1
2341,1,0.0,1,1.8151988983154297,342,1.0,1
2342,1,0.0,1,1.3442049026489258,343,0.0,1
2343,1,1.0,1,1.4382036924362183,344,1.0,1
2344,1,0.0,1,1.1512049436569214,345,1.0,1
2345,1,1.0,1,1.5482022762298584,346,1.0,1
2346,1,0.0,1,1.2332050800323486,347,0.0,1
2347,1,1.0,1,1.4592033624649048,348,0.0,1
2348,1,0.0,1,1.3822044134140015,349,0.0,1
2349,1,0.0,1,1.1752049922943115,350,0.0,1
2350,1,1.0,1,1.561202049255371,351,0.0,1
2351,1,0.0,1,1.5372023582458496,352,0.0,1
2352,1,1.0,1,1.9791967868804932,353,1.0,1
2353,1,1.0,1,1.4702032804489136,354,1.0,1
2354,1,1.0,1,1.1602048873901367,355,1.0,1
2355,1,1.0,1,1.2862051725387573,356,1.0,1
2356,1,1.0,1,1.2892051935195923,357,1.0,1
2357,1,1.0,1,1.4092040061950684,358,1.0,1
2358,1,1.0,1,1.5842018127441406,359,0.0,1
2359,1,1.0,1,1.5082027912139893,360,1.0,1
2360,1,1.0,1,1.3382049798965454,361,1.0,1
2361,1,1.0,1,1.8811979293823242,362,1.0,1
2362,1,1.0,1,1.399204134941101,363,0.0,1
2363,1,0.0,1,1.3452048301696777,364,0.0,1
2364,1,1.0,1,1.6872005462646484,365,0.0,1
2365,1,0.0,1,1.6272013187408447,366,0.0,1
2366,1,1.0,1,2.0631957054138184,367,1.0,1
2367,1,1.0,1,1.6512010097503662,368,0.0,1
2368,1,1.0,1,1.935197353363037,369,1.0,1
2369,1,1.0,1,1.274205207824707,370,1.0,1
2370,1,1.0,1,1.384204387664795,371,0.0,1
2371,1,0.0,1,1.7541996240615845,372,1.0,1
2372,1,0.0,1,1.5772018432617188,373,0.0,1
2373,1,1.0,1,1.2962051630020142,374,1.0,1
2374,1,1.0,1,1.6232013702392578,375,1.0,1
2375,1,1.0,1,1.2432050704956055,376,0.0,1
2376,1,0.0,1,1.5292024612426758,377,0.0,1
2377,1,1.0,1,1.3822044134140015,378,0.0,1
2378,1,0.0,1,1.5152026414871216,379,0.0,1
2379,1,0.0,1,1.2572051286697388,380,0.0,1
2380,1,1.0,1,2.0721960067749023,381,1.0,1
2381,1,1.0,1,1.569201946258545,382,1.0,1
2382,1,1.0,1,1.7671995162963867,383,0.0,1
2383,1,0.0,1,1.8351986408233643,384,0.0,1
2384,1,1.0,1,2.1642003059387207,385,0.0,1
2385,1,1.0,1,1.6742006540298462,386,1.0,1
2386,1,1.0,1,1.4492034912109375,387,1.0,1
2387,1,1.0,1,1.473203182220459,388,1.0,1
2388,1,1.0,1,1.6762006282806396,389,1.0,1
2389,1,1.0,1,1.3502048254013062,390,1.0,1
2390,1,1.0,1,2.0191962718963623,391,1.0,1
2391,1,1.0,1,1.3672045469284058,392,0.0,1
2392,1,1.0,1,1.6922004222869873,393,1.0,1
2393,1,1.0,1,1.32920503616333,394,1.0,1
2394,1,1.0,1,1.407204031944275,395,1.0,1
2395,1,1.0,1,1.3432048559188843,396,1.0,1
2396,1,1.0,1,1.2952052354812622,397,1.0,1
2397,1,1.0,1,1.2572051286697388,398,0.0,1
2398,1,1.0,1,1.6582008600234985,399,0.0,1
2399,1,1.0,1,1.9281973838806152,400,1.0,1
2400,1,1.0,1,1.3862043619155884,401,0.0,1
2401,1,0.0,1,1.8081989288330078,402,0.0,1
2402,1,0.0,1,2.0701956748962402,403,0.0,1
2403,1,1.0,1,1.4682033061981201,404,1.0,1
2404,1,1.0,1,1.4592033624649048,405,0.0,1
2405,1,1.0,1,1.9701968431472778,406,1.0,1
2406,1,1.0,1,1.6352012157440186,407,0.0,1
2407,1,0.0,1,1.5262025594711304,408,1.0,1
2408,1,0.0,1,1.6142014265060425,409,0.0,1
2409,1,0.0,1,2.1131978034973145,410,0.0,1
2410,1,0.0,1,1.2702051401138306,411,0.0,1
2411,1,1.0,1,1.9251973628997803,412,0.0,1
2412,1,0.0,1,1.3182052373886108,413,0.0,1
2413,1,1.0,1,1.9711968898773193,414,0.0,1
2414,1,0.0,1,2.0001964569091797,415,1.0,1
2415,1,0.0,1,1.6922004222869873,416,1.0,1
2416,1,0.0,1,1.2882051467895508,417,0.0,1
2417,1,0.0,1,1.2992051839828491,418,0.0,1
2418,1,0.0,1,1.9601969718933105,419,0.0,1
2419,1,1.0,1,1.5762019157409668,420,1.0,1
2420,1,1.0,1,1.2862051725387573,421,1.0,1
2421,1,1.0,1,1.4122040271759033,422,1.0,1
2422,1,1.0,1,1.3632045984268188,423,1.0,1
2423,1,1.0,1,1.311205267906189,424,1.0,1
2424,1,1.0,1,1.1862049102783203,425,1.0,1
2425,1,1.0,1,1.312205195426941,426,1.0,1
2426,1,1.0,1,1.4802031517028809,427,1.0,1
2427,1,1.0,1,1.4842031002044678,428,1.0,1
2428,1,1.0,1,1.4812030792236328,429,0.0,1
2429,1,0.0,1,1.2862051725387573,430,0.0,1
2430,1,0.0,1,1.4742032289505005,431,0.0,1
2431,1,1.0,1,1.594201683998108,432,1.0,1
2432,1,1.0,1,1.469203233718872,433,1.0,1
2433,1,1.0,1,1.5322024822235107,434,1.0,1
