response,rt,feedback,subj_idx,split_by,trial,q_init
1.0,1.5994877815246582,0.0,0,0,1,0.5
0.0,2.067481756210327,0.0,0,0,2,0.5
0.0,2.2674851417541504,1.0,0,0,3,0.5
0.0,1.5064890384674072,1.0,0,0,4,0.5
0.0,2.025482416152954,0.0,0,0,5,0.5
0.0,1.7324861288070679,0.0,0,0,6,0.5
1.0,3.1365256309509277,1.0,0,0,7,0.5
1.0,2.019482374191284,1.0,0,0,8,0.5
1.0,1.705486536026001,1.0,0,0,9,0.5
1.0,1.449489712715149,1.0,0,0,10,0.5
1.0,1.6184875965118408,1.0,0,0,11,0.5
1.0,1.39749014377594,1.0,0,0,12,0.5
1.0,1.7114863395690918,1.0,0,0,13,0.5
1.0,1.5084890127182007,1.0,0,0,14,0.5
1.0,2.035482168197632,1.0,0,0,15,0.5
1.0,1.62948739528656,1.0,0,0,16,0.5
1.0,1.60648775100708,1.0,0,0,17,0.5
1.0,1.6674869060516357,1.0,0,0,18,0.5
1.0,1.8614845275878906,1.0,0,0,19,0.5
1.0,1.5774880647659302,0.0,0,0,20,0.5
0.0,2.2734854221343994,1.0,0,0,21,0.5
0.0,2.3204874992370605,0.0,0,0,22,0.5
1.0,1.492489218711853,1.0,0,0,23,0.5
1.0,1.5124889612197876,1.0,0,0,24,0.5
1.0,1.3684899806976318,1.0,0,0,25,0.5
1.0,1.7154862880706787,1.0,0,0,26,0.5
1.0,1.5944879055023193,0.0,0,0,27,0.5
0.0,2.1344809532165527,0.0,0,0,28,0.5
1.0,2.410491943359375,1.0,0,0,29,0.5
1.0,1.493489146232605,1.0,0,0,30,0.5
1.0,2.3194875717163086,1.0,0,0,31,0.5
1.0,1.3824900388717651,1.0,0,0,32,0.5
1.0,1.3344899415969849,1.0,0,0,33,0.5
1.0,1.3784900903701782,1.0,0,0,34,0.5
1.0,1.5954878330230713,1.0,0,0,35,0.5
1.0,1.3754900693893433,1.0,0,0,36,0.5
1.0,2.3154873847961426,1.0,0,0,37,0.5
1.0,1.8254849910736084,1.0,0,0,38,0.5
1.0,1.559488296508789,1.0,0,0,39,0.5
1.0,1.6654869318008423,0.0,0,0,40,0.5
1.0,4.390438556671143,1.0,0,0,41,0.5
1.0,1.9974827766418457,1.0,0,0,42,0.5
1.0,1.3714900016784668,1.0,0,0,43,0.5
1.0,1.5384886264801025,1.0,0,0,44,0.5
1.0,1.333490014076233,0.0,0,0,45,0.5
0.0,2.667503833770752,0.0,0,0,46,0.5
0.0,1.7444859743118286,0.0,0,0,47,0.5
1.0,2.5194969177246094,1.0,0,0,48,0.5
1.0,1.8114850521087646,1.0,0,0,49,0.5
1.0,1.7454860210418701,1.0,0,0,50,0.5
1.0,1.4434897899627686,1.0,0,0,51,0.5
1.0,1.4244900941848755,0.0,0,0,52,0.5
0.0,2.406491756439209,1.0,0,0,53,0.5
0.0,2.6005005836486816,1.0,0,0,54,0.5
0.0,1.5994877815246582,0.0,0,0,55,0.5
0.0,1.4874892234802246,0.0,0,0,56,0.5
0.0,1.9914827346801758,0.0,0,0,57,0.5
1.0,2.3234877586364746,1.0,0,0,58,0.5
1.0,1.5994877815246582,0.0,0,0,59,0.5
1.0,1.358489990234375,1.0,0,0,60,0.5
1.0,1.3454899787902832,1.0,0,0,61,0.5
1.0,1.3744900226593018,1.0,0,0,62,0.5
1.0,1.2714898586273193,1.0,0,0,63,0.5
1.0,1.3194899559020996,1.0,0,0,64,0.5
1.0,2.163480520248413,1.0,0,0,65,0.5
1.0,1.330489993095398,1.0,0,0,66,0.5
1.0,1.3904900550842285,1.0,0,0,67,0.5
1.0,1.4064900875091553,1.0,0,0,68,0.5
1.0,1.2594897747039795,1.0,0,0,69,0.5
1.0,1.633487343788147,1.0,0,0,70,0.5
1.0,1.7634856700897217,1.0,0,0,71,0.5
1.0,1.3374899625778198,1.0,0,0,72,0.5
1.0,2.068481922149658,1.0,0,0,73,0.5
1.0,1.4094901084899902,1.0,0,0,74,0.5
1.0,1.753485918045044,1.0,0,0,75,0.5
1.0,1.6204875707626343,1.0,0,0,76,0.5
1.0,1.4284900426864624,1.0,0,0,77,0.5
1.0,1.7354860305786133,1.0,0,0,78,0.5
1.0,2.036482334136963,1.0,0,0,79,0.5
1.0,1.3364899158477783,0.0,0,0,80,0.5
1.0,1.540488600730896,1.0,0,0,81,0.5
1.0,1.5174888372421265,0.0,0,0,82,0.5
0.0,2.5064964294433594,0.0,0,0,83,0.5
0.0,3.615494728088379,0.0,0,0,84,0.5
1.0,2.667503833770752,1.0,0,0,85,0.5
1.0,2.3534891605377197,1.0,0,0,86,0.5
1.0,1.6854867935180664,1.0,0,0,87,0.5
1.0,2.2864861488342285,1.0,0,0,88,0.5
1.0,1.728486180305481,0.0,0,0,89,0.5
0.0,1.746485948562622,0.0,0,0,90,0.5
1.0,2.5534985065460205,0.0,0,0,91,0.5
0.0,2.729506731033325,0.0,0,0,92,0.5
1.0,2.3534891605377197,1.0,0,0,93,0.5
1.0,1.4994890689849854,1.0,0,0,94,0.5
1.0,1.6134876012802124,1.0,0,0,95,0.5
1.0,1.4884892702102661,1.0,0,0,96,0.5
1.0,1.3144899606704712,1.0,0,0,97,0.5
1.0,1.6654869318008423,1.0,0,0,98,0.5
1.0,2.428492546081543,1.0,0,0,99,0.5
1.0,1.3964900970458984,1.0,0,0,100,0.5
1.0,1.2864898443222046,1.0,0,0,101,0.5
1.0,1.8004852533340454,1.0,0,0,102,0.5
1.0,1.3434900045394897,1.0,0,0,103,0.5
1.0,2.0444822311401367,1.0,0,0,104,0.5
1.0,1.514488935470581,1.0,0,0,105,0.5
1.0,1.6264874935150146,0.0,0,0,106,0.5
1.0,1.4624896049499512,0.0,0,0,107,0.5
1.0,1.7404860258102417,1.0,0,0,108,0.5
1.0,3.0145201683044434,0.0,0,0,109,0.5
0.0,3.594496250152588,0.0,0,0,110,0.5
1.0,1.537488579750061,0.0,0,0,111,0.5
0.0,1.9144837856292725,0.0,0,0,112,0.5
1.0,1.8924840688705444,1.0,0,0,113,0.5
1.0,2.0394821166992188,1.0,0,0,114,0.5
1.0,2.8115105628967285,1.0,0,0,115,0.5
1.0,1.7814855575561523,1.0,0,0,116,0.5
1.0,1.5464885234832764,0.0,0,0,117,0.5
1.0,1.5604883432388306,1.0,0,0,118,0.5
1.0,1.7904853820800781,1.0,0,0,119,0.5
1.0,1.934483528137207,1.0,0,0,120,0.5
1.0,1.4314899444580078,1.0,0,0,121,0.5
1.0,1.4574896097183228,0.0,0,0,122,0.5
1.0,2.974518299102783,1.0,0,0,123,0.5
1.0,1.655487060546875,1.0,0,0,124,0.5
1.0,1.7354860305786133,1.0,0,0,125,0.5
1.0,1.8804842233657837,1.0,0,0,126,0.5
1.0,1.493489146232605,1.0,0,0,127,0.5
1.0,1.5234887599945068,1.0,0,0,128,0.5
1.0,2.085481643676758,1.0,0,0,129,0.5
1.0,1.6864867210388184,1.0,0,0,130,0.5
1.0,1.793485403060913,1.0,0,0,131,0.5
1.0,2.0874814987182617,0.0,0,0,132,0.5
1.0,2.682504653930664,1.0,0,0,133,0.5
1.0,1.4554896354675293,1.0,0,0,134,0.5
1.0,1.5524884462356567,1.0,0,0,135,0.5
1.0,1.607487678527832,0.0,0,0,136,0.5
0.0,1.9504833221435547,0.0,0,0,137,0.5
1.0,2.1104812622070312,1.0,0,0,138,0.5
1.0,1.9804829359054565,1.0,0,0,139,0.5
1.0,1.3014899492263794,1.0,0,0,140,0.5
1.0,1.5614882707595825,0.0,0,0,141,0.5
1.0,1.5504884719848633,1.0,0,0,142,0.5
1.0,1.6874866485595703,1.0,0,0,143,0.5
1.0,1.6894867420196533,1.0,0,0,144,0.5
1.0,1.3814901113510132,1.0,0,0,145,0.5
1.0,1.6754868030548096,1.0,0,0,146,0.5
1.0,1.6124876737594604,1.0,0,0,147,0.5
1.0,1.3924901485443115,0.0,0,0,148,0.5
0.0,1.8664844036102295,0.0,0,0,149,0.5
1.0,2.2914862632751465,0.0,0,0,150,0.5
1.0,1.6524871587753296,0.0,0,0,151,0.5
1.0,1.6204875707626343,1.0,0,0,152,0.5
1.0,1.6044877767562866,1.0,0,0,153,0.5
1.0,1.294489860534668,1.0,0,0,154,0.5
1.0,1.6784868240356445,1.0,0,0,155,0.5
1.0,1.6744868755340576,0.0,0,0,156,0.5
1.0,1.7444859743118286,1.0,0,0,157,0.5
1.0,2.3484888076782227,1.0,0,0,158,0.5
1.0,1.515488862991333,1.0,0,0,159,0.5
1.0,1.388490080833435,1.0,0,0,160,0.5
1.0,1.7904853820800781,1.0,0,0,161,0.5
1.0,1.76848566532135,0.0,0,0,162,0.5
1.0,1.398490071296692,1.0,0,0,163,0.5
1.0,1.6694869995117188,1.0,0,0,164,0.5
1.0,2.2724852561950684,1.0,0,0,165,0.5
1.0,2.0084824562072754,1.0,0,0,166,0.5
1.0,1.3754900693893433,1.0,0,0,167,0.5
1.0,1.290489912033081,1.0,0,0,168,0.5
1.0,2.2264833450317383,1.0,0,0,169,0.5
1.0,1.5494884252548218,0.0,0,0,170,0.5
1.0,1.8144850730895996,1.0,0,0,171,0.5
1.0,1.3854900598526,1.0,0,0,172,0.5
1.0,1.427489995956421,0.0,0,0,173,0.5
0.0,2.661503553390503,0.0,0,0,174,0.5
1.0,1.8264849185943604,1.0,0,0,175,0.5
1.0,1.3764901161193848,1.0,0,0,176,0.5
1.0,1.254489779472351,0.0,0,0,177,0.5
0.0,2.7385072708129883,0.0,0,0,178,0.5
1.0,1.698486566543579,1.0,0,0,179,0.5
1.0,1.6374872922897339,1.0,0,0,180,0.5
1.0,1.7154862880706787,1.0,0,0,181,0.5
1.0,1.3534899950027466,1.0,0,0,182,0.5
1.0,1.4344899654388428,1.0,0,0,183,0.5
1.0,1.4184901714324951,0.0,0,0,184,0.5
0.0,1.8984839916229248,0.0,0,0,185,0.5
1.0,1.3994901180267334,1.0,0,0,186,0.5
1.0,1.588487982749939,1.0,0,0,187,0.5
1.0,1.702486515045166,0.0,0,0,188,0.5
1.0,1.4624896049499512,1.0,0,0,189,0.5
1.0,1.4074901342391968,1.0,0,0,190,0.5
1.0,1.3224899768829346,1.0,0,0,191,0.5
1.0,2.073481798171997,1.0,0,0,192,0.5
1.0,1.5354886054992676,1.0,0,0,193,0.5
1.0,1.7114863395690918,1.0,0,0,194,0.5
1.0,1.7204862833023071,1.0,0,0,195,0.5
1.0,1.3424899578094482,1.0,0,0,196,0.5
1.0,1.4114900827407837,1.0,0,0,197,0.5
1.0,1.8534846305847168,1.0,0,0,198,0.5
1.0,1.4654895067214966,1.0,0,0,199,0.5
1.0,1.893484115600586,1.0,0,0,200,0.5
1.0,1.474489450454712,1.0,0,0,201,0.5
1.0,1.7554857730865479,1.0,0,0,202,0.5
1.0,1.3084899187088013,1.0,0,0,203,0.5
1.0,1.6124876737594604,1.0,0,0,204,0.5
1.0,1.4634895324707031,1.0,0,0,205,0.5
1.0,1.5874879360198975,1.0,0,0,206,0.5
1.0,1.3104898929595947,1.0,0,0,207,0.5
1.0,2.3114871978759766,1.0,0,0,208,0.5
1.0,1.39749014377594,0.0,0,0,209,0.5
1.0,3.552499294281006,1.0,0,0,210,0.5
1.0,2.2184829711914062,1.0,0,0,211,0.5
1.0,2.1354808807373047,1.0,0,0,212,0.5
1.0,1.3144899606704712,1.0,0,0,213,0.5
1.0,1.6964865922927856,1.0,0,0,214,0.5
1.0,1.4154901504516602,1.0,0,0,215,0.5
1.0,1.5294886827468872,1.0,0,0,216,0.5
1.0,1.3194899559020996,1.0,0,0,217,0.5
1.0,1.4114900827407837,1.0,0,0,218,0.5
1.0,2.3474888801574707,1.0,0,0,219,0.5
1.0,3.442507266998291,0.0,0,0,220,0.5
1.0,1.6174875497817993,1.0,0,0,221,0.5
1.0,1.3714900016784668,1.0,0,0,222,0.5
1.0,1.3664900064468384,1.0,0,0,223,0.5
1.0,1.39749014377594,1.0,0,0,224,0.5
1.0,2.2524843215942383,1.0,0,0,225,0.5
1.0,1.3754900693893433,1.0,0,0,226,0.5
1.0,1.4554896354675293,1.0,0,0,227,0.5
1.0,1.3784900903701782,0.0,0,0,228,0.5
1.0,2.064481735229492,1.0,0,0,229,0.5
1.0,1.3534899950027466,1.0,0,0,230,0.5
1.0,1.4314899444580078,1.0,0,0,231,0.5
1.0,1.3174899816513062,1.0,0,0,232,0.5
1.0,1.3624900579452515,1.0,0,0,233,0.5
1.0,2.0884814262390137,0.0,0,0,234,0.5
1.0,1.703486442565918,1.0,0,0,235,0.5
1.0,2.0454821586608887,1.0,0,0,236,0.5
1.0,2.221482992172241,1.0,0,0,237,0.5
1.0,1.4844893217086792,1.0,0,0,238,0.5
1.0,2.0874814987182617,1.0,0,0,239,0.5
1.0,1.3504899740219116,0.0,0,0,240,0.5
1.0,2.5124964714050293,1.0,0,0,241,0.5
1.0,1.5104889869689941,1.0,0,0,242,0.5
1.0,1.3934900760650635,1.0,0,0,243,0.5
1.0,1.4324899911880493,1.0,0,0,244,0.5
1.0,2.452493667602539,1.0,0,0,245,0.5
1.0,1.5174888372421265,1.0,0,0,246,0.5
1.0,1.7114863395690918,1.0,0,0,247,0.5
1.0,1.4684895277023315,1.0,0,0,248,0.5
1.0,1.5004891157150269,1.0,0,0,249,0.5
1.0,1.6684869527816772,0.0,0,0,250,0.5
1.0,4.5624260902404785,1.0,0,0,251,0.5
1.0,1.8884841203689575,1.0,0,0,252,0.5
1.0,1.7774856090545654,1.0,0,0,253,0.5
1.0,1.4154901504516602,1.0,0,0,254,0.5
1.0,1.4824893474578857,1.0,0,0,255,0.5
1.0,1.7524858713150024,1.0,0,0,256,0.5
1.0,1.558488368988037,1.0,0,0,257,0.5
1.0,1.5004891157150269,1.0,0,0,258,0.5
1.0,1.260489821434021,0.0,0,0,259,0.5
1.0,2.3474888801574707,0.0,0,0,260,0.5
1.0,1.39749014377594,1.0,0,0,261,0.5
1.0,1.933483600616455,1.0,0,0,262,0.5
1.0,1.728486180305481,1.0,0,0,263,0.5
1.0,1.6434872150421143,1.0,0,0,264,0.5
1.0,1.4814893007278442,1.0,0,0,265,0.5
1.0,1.4724894762039185,0.0,0,0,266,0.5
1.0,1.842484712600708,1.0,0,0,267,0.5
1.0,1.449489712715149,1.0,0,0,268,0.5
1.0,1.6684869527816772,1.0,0,0,269,0.5
1.0,2.193481683731079,1.0,0,0,270,0.5
1.0,1.4284900426864624,0.0,0,0,271,0.5
1.0,3.9924674034118652,1.0,0,0,272,0.5
1.0,2.1444807052612305,1.0,0,0,273,0.5
1.0,3.0405211448669434,1.0,0,0,274,0.5
1.0,1.352489948272705,1.0,0,0,275,0.5
1.0,2.3344883918762207,1.0,0,0,276,0.5
1.0,1.6214874982833862,0.0,0,0,277,0.5
1.0,1.8474845886230469,1.0,0,0,278,0.5
1.0,1.4084901809692383,1.0,0,0,279,0.5
1.0,1.4314899444580078,1.0,0,0,280,0.5
1.0,1.6934866905212402,1.0,0,0,281,0.5
1.0,1.680486798286438,1.0,0,0,282,0.5
1.0,1.7774856090545654,1.0,0,0,283,0.5
1.0,1.4564896821975708,0.0,0,0,284,0.5
1.0,1.4844893217086792,1.0,0,0,285,0.5
1.0,2.20748233795166,1.0,0,0,286,0.5
1.0,1.3724900484085083,1.0,0,0,287,0.5
1.0,1.318489909172058,0.0,0,0,288,0.5
1.0,1.51948881149292,1.0,0,0,289,0.5
1.0,1.6094876527786255,1.0,0,0,290,0.5
1.0,2.625501871109009,1.0,0,0,291,0.5
1.0,1.5904879570007324,1.0,0,0,292,0.5
1.0,1.933483600616455,1.0,0,0,293,0.5
1.0,1.4804893732070923,0.0,0,0,294,0.5
1.0,2.987518787384033,0.0,0,0,295,0.5
1.0,2.1514806747436523,0.0,0,0,296,0.5
1.0,1.6094876527786255,1.0,0,0,297,0.5
1.0,1.493489146232605,1.0,0,0,298,0.5
1.0,3.3065171241760254,1.0,0,0,299,0.5
1.0,1.4634895324707031,1.0,0,0,300,0.5
1.0,2.177480936050415,1.0,0,0,301,0.5
1.0,1.7174863815307617,1.0,0,0,302,0.5
1.0,1.3044898509979248,1.0,0,0,303,0.5
1.0,1.3874900341033936,1.0,0,0,304,0.5
1.0,1.563488245010376,1.0,0,0,305,0.5
1.0,1.705486536026001,1.0,0,0,306,0.5
1.0,1.65848708152771,1.0,0,0,307,0.5
1.0,1.3494900465011597,1.0,0,0,308,0.5
1.0,1.6034877300262451,1.0,0,0,309,0.5
1.0,1.845484733581543,0.0,0,0,310,0.5
0.0,2.08048152923584,0.0,0,0,311,0.5
1.0,1.7794854640960693,1.0,0,0,312,0.5
1.0,2.118481159210205,1.0,0,0,313,0.5
1.0,2.5334975719451904,1.0,0,0,314,0.5
1.0,1.8224849700927734,1.0,0,0,315,0.5
1.0,1.6024878025054932,1.0,0,0,316,0.5
1.0,1.3784900903701782,1.0,0,0,317,0.5
1.0,1.3024898767471313,1.0,0,0,318,0.5
1.0,1.5644882917404175,1.0,0,0,319,0.5
1.0,1.293489933013916,1.0,0,0,320,0.5
1.0,1.3384900093078613,1.0,0,0,321,0.5
1.0,1.4324899911880493,1.0,0,0,322,0.5
1.0,1.8654844760894775,1.0,0,0,323,0.5
1.0,1.3824900388717651,1.0,0,0,324,0.5
1.0,1.9024839401245117,0.0,0,0,325,0.5
0.0,1.8294849395751953,0.0,0,0,326,0.5
1.0,2.2534844875335693,0.0,0,0,327,0.5
0.0,2.223483085632324,0.0,0,0,328,0.5
1.0,1.7164863348007202,1.0,0,0,329,0.5
1.0,3.8004813194274902,1.0,0,0,330,0.5
1.0,1.9724830389022827,0.0,0,0,331,0.5
1.0,2.445493459701538,1.0,0,0,332,0.5
1.0,2.3024868965148926,0.0,0,0,333,0.5
1.0,2.2544846534729004,1.0,0,0,334,0.5
1.0,1.5254887342453003,1.0,0,0,335,0.5
1.0,1.8084851503372192,0.0,0,0,336,0.5
1.0,2.455493927001953,1.0,0,0,337,0.5
1.0,1.493489146232605,1.0,0,0,338,0.5
1.0,1.6824867725372314,1.0,0,0,339,0.5
1.0,1.489489197731018,1.0,0,0,340,0.5
1.0,1.5484884977340698,1.0,0,0,341,0.5
1.0,1.6314873695373535,1.0,0,0,342,0.5
1.0,1.3264899253845215,1.0,0,0,343,0.5
1.0,3.849477767944336,1.0,0,0,344,0.5
1.0,1.7974853515625,1.0,0,0,345,0.5
1.0,1.352489948272705,1.0,0,0,346,0.5
1.0,1.3324899673461914,1.0,0,0,347,0.5
1.0,1.6194875240325928,1.0,0,0,348,0.5
1.0,1.3704900741577148,1.0,0,0,349,0.5
1.0,1.2814898490905762,0.0,0,0,350,0.5
1.0,1.544488549232483,1.0,0,0,351,0.5
1.0,1.536488652229309,0.0,0,0,352,0.5
1.0,2.5494983196258545,1.0,0,0,353,0.5
1.0,1.6424872875213623,1.0,0,0,354,0.5
1.0,2.022482395172119,0.0,0,0,355,0.5
0.0,1.8814842700958252,0.0,0,0,356,0.5
1.0,3.4745049476623535,1.0,0,0,357,0.5
1.0,2.5044960975646973,1.0,0,0,358,0.5
1.0,1.793485403060913,0.0,0,0,359,0.5
1.0,1.614487648010254,1.0,0,0,360,0.5
1.0,1.4804893732070923,0.0,0,0,361,0.5
0.0,1.5974878072738647,0.0,0,0,362,0.5
1.0,1.3734900951385498,1.0,0,0,363,0.5
1.0,1.4554896354675293,1.0,0,0,364,0.5
1.0,1.3794900178909302,0.0,0,0,365,0.5
1.0,1.4654895067214966,1.0,0,0,366,0.5
1.0,1.4124901294708252,0.0,0,0,367,0.5
0.0,1.8524845838546753,0.0,0,0,368,0.5
1.0,1.8594844341278076,1.0,0,0,369,0.5
1.0,1.7734856605529785,1.0,0,0,370,0.5
1.0,1.5824880599975586,1.0,0,0,371,0.5
1.0,1.6734869480133057,1.0,0,0,372,0.5
1.0,1.2704898118972778,0.0,0,0,373,0.5
1.0,2.3374884128570557,1.0,0,0,374,0.5
1.0,1.4614895582199097,1.0,0,0,375,0.5
1.0,1.497489094734192,1.0,0,0,376,0.5
1.0,2.8015100955963135,1.0,0,0,377,0.5
1.0,1.6534870862960815,1.0,0,0,378,0.5
1.0,1.8554844856262207,1.0,0,0,379,0.5
1.0,1.416490077972412,1.0,0,0,380,0.5
1.0,1.628487467765808,1.0,0,0,381,0.5
1.0,1.4354898929595947,0.0,0,0,382,0.5
1.0,3.315516471862793,0.0,0,0,383,0.5
1.0,3.5385003089904785,1.0,0,0,384,0.5
1.0,1.6784868240356445,0.0,0,0,385,0.5
1.0,1.3534899950027466,1.0,0,0,386,0.5
1.0,1.4794893264770508,0.0,0,0,387,0.5
1.0,2.2494843006134033,1.0,0,0,388,0.5
1.0,2.0904815196990967,1.0,0,0,389,0.5
1.0,1.7394859790802002,1.0,0,0,390,0.5
1.0,1.324489951133728,1.0,0,0,391,0.5
1.0,1.6054877042770386,1.0,0,0,392,0.5
1.0,1.3324899673461914,1.0,0,0,393,0.5
1.0,1.3454899787902832,0.0,0,0,394,0.5
1.0,1.6354873180389404,1.0,0,0,395,0.5
1.0,1.44448983669281,1.0,0,0,396,0.5
1.0,1.5004891157150269,1.0,0,0,397,0.5
1.0,2.205482244491577,1.0,0,0,398,0.5
1.0,1.3414900302886963,1.0,0,0,399,0.5
1.0,1.4754893779754639,1.0,0,0,400,0.5
1.0,1.3254899978637695,1.0,0,0,401,0.5
1.0,1.8064851760864258,1.0,0,0,402,0.5
1.0,1.4534896612167358,1.0,0,0,403,0.5
1.0,1.4094901084899902,0.0,0,0,404,0.5
1.0,1.838484764099121,1.0,0,0,405,0.5
1.0,1.4914891719818115,1.0,0,0,406,0.5
1.0,1.9244836568832397,1.0,0,0,407,0.5
1.0,2.1394808292388916,0.0,0,0,408,0.5
1.0,2.4874954223632812,1.0,0,0,409,0.5
1.0,1.2994898557662964,1.0,0,0,410,0.5
1.0,1.684486746788025,1.0,0,0,411,0.5
1.0,1.7314860820770264,1.0,0,0,412,0.5
1.0,1.4434897899627686,1.0,0,0,413,0.5
1.0,1.5734881162643433,0.0,0,0,414,0.5
1.0,3.381511688232422,1.0,0,0,415,0.5
1.0,1.636487364768982,1.0,0,0,416,0.5
1.0,1.4134901762008667,1.0,0,0,417,0.5
1.0,1.4024901390075684,0.0,0,0,418,0.5
1.0,3.159526824951172,0.0,0,0,419,0.5
0.0,1.6694869995117188,0.0,0,0,420,0.5
0.0,2.0044827461242676,0.0,0,0,421,0.5
0.0,2.3224878311157227,0.0,0,0,422,0.5
1.0,1.3114899396896362,1.0,0,0,423,0.5
1.0,2.201482057571411,1.0,0,0,424,0.5
1.0,1.558488368988037,1.0,0,0,425,0.5
1.0,1.4204901456832886,1.0,0,0,426,0.5
1.0,1.4384899139404297,0.0,0,0,427,0.5
0.0,2.399491310119629,0.0,0,0,428,0.5
1.0,2.0904815196990967,1.0,0,0,429,0.5
1.0,2.024482250213623,1.0,0,0,430,0.5
1.0,1.7624857425689697,1.0,0,0,431,0.5
1.0,2.0574820041656494,1.0,0,0,432,0.5
1.0,1.470489501953125,1.0,0,0,433,0.5
1.0,2.071481704711914,0.0,0,0,434,0.5
1.0,2.1564807891845703,0.0,0,0,435,0.5
0.0,2.2314834594726562,0.0,0,0,436,0.5
0.0,1.885484218597412,0.0,0,0,437,0.5
1.0,2.2604846954345703,1.0,0,0,438,0.5
1.0,2.179481029510498,1.0,0,0,439,0.5
1.0,1.6014877557754517,1.0,0,0,440,0.5
1.0,1.6814868450164795,1.0,0,0,441,0.5
1.0,1.7974853515625,1.0,0,0,442,0.5
1.0,1.5824880599975586,1.0,0,0,443,0.5
1.0,1.6454871892929077,1.0,0,0,444,0.5
1.0,1.5944879055023193,1.0,0,0,445,0.5
1.0,1.318489909172058,1.0,0,0,446,0.5
1.0,1.9044839143753052,1.0,0,0,447,0.5
1.0,1.7824854850769043,1.0,0,0,448,0.5
1.0,1.4554896354675293,1.0,0,0,449,0.5
1.0,1.4174901247024536,0.0,0,0,450,0.5
1.0,2.0534820556640625,1.0,0,0,451,0.5
1.0,1.9504833221435547,1.0,0,0,452,0.5
1.0,1.4084901809692383,1.0,0,0,453,0.5
1.0,1.5614882707595825,0.0,0,0,454,0.5
1.0,1.5934878587722778,1.0,0,0,455,0.5
1.0,2.181481122970581,0.0,0,0,456,0.5
1.0,3.438507556915283,1.0,0,0,457,0.5
1.0,1.3654900789260864,1.0,0,0,458,0.5
1.0,2.2184829711914062,1.0,0,0,459,0.5
1.0,1.3234899044036865,1.0,0,0,460,0.5
1.0,1.6904866695404053,0.0,0,0,461,0.5
1.0,1.838484764099121,1.0,0,0,462,0.5
1.0,1.474489450454712,1.0,0,0,463,0.5
1.0,1.5084890127182007,0.0,0,0,464,0.5
1.0,1.8764842748641968,0.0,0,0,465,0.5
0.0,2.3434886932373047,0.0,0,0,466,0.5
1.0,1.4724894762039185,1.0,0,0,467,0.5
1.0,1.8774843215942383,1.0,0,0,468,0.5
1.0,1.5244888067245483,1.0,0,0,469,0.5
1.0,1.51948881149292,1.0,0,0,470,0.5
1.0,1.6974866390228271,1.0,0,0,471,0.5
1.0,1.427489995956421,1.0,0,0,472,0.5
1.0,1.5604883432388306,1.0,0,0,473,0.5
1.0,1.422490119934082,0.0,0,0,474,0.5
0.0,1.743485927581787,0.0,0,0,475,0.5
1.0,1.8044852018356323,1.0,0,0,476,0.5
1.0,1.6094876527786255,1.0,0,0,477,0.5
1.0,2.5174968242645264,1.0,0,0,478,0.5
1.0,1.9404834508895874,1.0,0,0,479,0.5
1.0,1.416490077972412,1.0,0,0,480,0.5
1.0,1.3424899578094482,0.0,0,0,481,0.5
1.0,1.7604857683181763,1.0,0,0,482,0.5
1.0,1.4394898414611816,1.0,0,0,483,0.5
1.0,1.6034877300262451,1.0,0,0,484,0.5
1.0,1.7394859790802002,1.0,0,0,485,0.5
1.0,1.5384886264801025,1.0,0,0,486,0.5
1.0,1.8654844760894775,1.0,0,0,487,0.5
1.0,1.7674856185913086,1.0,0,0,488,0.5
1.0,1.4854892492294312,1.0,0,0,489,0.5
1.0,1.9574832916259766,1.0,0,0,490,0.5
1.0,1.607487678527832,1.0,0,0,491,0.5
1.0,1.39149010181427,1.0,0,0,492,0.5
1.0,1.4864892959594727,1.0,0,0,493,0.5
1.0,1.6694869995117188,0.0,0,0,494,0.5
0.0,2.645502805709839,0.0,0,0,495,0.5
1.0,3.6714906692504883,0.0,0,0,496,0.5
1.0,2.0134825706481934,1.0,0,0,497,0.5
1.0,2.2854859828948975,1.0,0,0,498,0.5
1.0,1.4644895792007446,1.0,0,0,499,0.5
1.0,1.7104864120483398,1.0,0,0,500,0.5
1.0,2.2904863357543945,1.0,0,1,1,0.5
1.0,2.5744996070861816,1.0,0,1,2,0.5
0.0,1.9974827766418457,0.0,0,1,3,0.5
1.0,1.441489815711975,0.0,0,1,4,0.5
0.0,3.5444998741149902,0.0,0,1,5,0.5
1.0,1.5044890642166138,0.0,0,1,6,0.5
1.0,2.9865188598632812,1.0,0,1,7,0.5
1.0,1.5324887037277222,1.0,0,1,8,0.5
1.0,1.654487133026123,0.0,0,1,9,0.5
0.0,2.0414822101593018,0.0,0,1,10,0.5
1.0,3.5385003089904785,1.0,0,1,11,0.5
1.0,1.7744855880737305,1.0,0,1,12,0.5
1.0,1.5014890432357788,0.0,0,1,13,0.5
0.0,1.9954826831817627,1.0,0,1,14,0.5
0.0,1.5794880390167236,0.0,0,1,15,0.5
1.0,2.031482219696045,1.0,0,1,16,0.5
1.0,1.3654900789260864,1.0,0,1,17,0.5
1.0,1.4724894762039185,1.0,0,1,18,0.5
1.0,1.7194862365722656,1.0,0,1,19,0.5
1.0,1.6714868545532227,0.0,0,1,20,0.5
1.0,3.1985249519348145,1.0,0,1,21,0.5
1.0,1.4694894552230835,1.0,0,1,22,0.5
1.0,1.6094876527786255,0.0,0,1,23,0.5
0.0,3.314516544342041,0.0,0,1,24,0.5
0.0,2.5564985275268555,0.0,0,1,25,0.5
1.0,3.273519515991211,1.0,0,1,26,0.5
1.0,1.4544897079467773,1.0,0,1,27,0.5
1.0,1.3734900951385498,1.0,0,1,28,0.5
1.0,1.493489146232605,0.0,0,1,29,0.5
1.0,2.397491216659546,1.0,0,1,30,0.5
1.0,1.4644895792007446,1.0,0,1,31,0.5
1.0,3.1185250282287598,1.0,0,1,32,0.5
1.0,1.5964878797531128,1.0,0,1,33,0.5
1.0,3.1295254230499268,1.0,0,1,34,0.5
1.0,1.8574845790863037,1.0,0,1,35,0.5
1.0,2.9995193481445312,1.0,0,1,36,0.5
1.0,2.124481201171875,1.0,0,1,37,0.5
1.0,1.2564897537231445,1.0,0,1,38,0.5
1.0,1.4994890689849854,1.0,0,1,39,0.5
1.0,2.0204825401306152,1.0,0,1,40,0.5
1.0,1.3164899349212646,0.0,0,1,41,0.5
0.0,2.7345070838928223,0.0,0,1,42,0.5
1.0,1.8954839706420898,1.0,0,1,43,0.5
1.0,1.6624870300292969,1.0,0,1,44,0.5
1.0,1.9364835023880005,0.0,0,1,45,0.5
0.0,1.633487343788147,1.0,0,1,46,0.5
0.0,2.7685084342956543,0.0,0,1,47,0.5
1.0,1.6664869785308838,1.0,0,1,48,0.5
1.0,1.8124850988388062,0.0,0,1,49,0.5
0.0,2.2694852352142334,1.0,0,1,50,0.5
0.0,2.744507312774658,0.0,0,1,51,0.5
1.0,2.192481517791748,1.0,0,1,52,0.5
1.0,1.5774880647659302,1.0,0,1,53,0.5
1.0,2.165480613708496,1.0,0,1,54,0.5
0.0,1.6254874467849731,1.0,0,1,55,0.5
1.0,1.2854899168014526,1.0,0,1,56,0.5
1.0,1.6944866180419922,0.0,0,1,57,0.5
0.0,1.699486494064331,0.0,0,1,58,0.5
1.0,1.5954878330230713,1.0,0,1,59,0.5
1.0,2.5764994621276855,0.0,0,1,60,0.5
1.0,1.6274874210357666,0.0,0,1,61,0.5
0.0,2.3484888076782227,0.0,0,1,62,0.5
0.0,2.7625083923339844,0.0,0,1,63,0.5
0.0,2.1104812622070312,0.0,0,1,64,0.5
1.0,1.8974840641021729,1.0,0,1,65,0.5
1.0,3.510502338409424,1.0,0,1,66,0.5
1.0,1.7784855365753174,1.0,0,1,67,0.5
1.0,1.537488579750061,1.0,0,1,68,0.5
1.0,1.4144901037216187,1.0,0,1,69,0.5
1.0,1.419490098953247,1.0,0,1,70,0.5
1.0,1.4784893989562988,1.0,0,1,71,0.5
1.0,1.891484022140503,1.0,0,1,72,0.5
1.0,1.541488528251648,1.0,0,1,73,0.5
1.0,1.4094901084899902,0.0,0,1,74,0.5
1.0,1.3444900512695312,1.0,0,1,75,0.5
1.0,2.119481086730957,1.0,0,1,76,0.5
1.0,1.4384899139404297,1.0,0,1,77,0.5
1.0,1.3854900598526,1.0,0,1,78,0.5
1.0,1.296489953994751,1.0,0,1,79,0.5
1.0,1.36149001121521,1.0,0,1,80,0.5
1.0,1.493489146232605,1.0,0,1,81,0.5
1.0,1.6244875192642212,1.0,0,1,82,0.5
1.0,1.7104864120483398,1.0,0,1,83,0.5
1.0,1.8984839916229248,0.0,0,1,84,0.5
1.0,1.705486536026001,1.0,0,1,85,0.5
1.0,2.0154824256896973,0.0,0,1,86,0.5
0.0,2.5194969177246094,1.0,0,1,87,0.5
0.0,1.5354886054992676,0.0,0,1,88,0.5
0.0,1.8714842796325684,1.0,0,1,89,0.5
0.0,2.5364975929260254,0.0,0,1,90,0.5
0.0,1.6834867000579834,0.0,0,1,91,0.5
1.0,1.9554831981658936,1.0,0,1,92,0.5
1.0,1.4314899444580078,1.0,0,1,93,0.5
1.0,2.2674851417541504,1.0,0,1,94,0.5
1.0,1.6264874935150146,1.0,0,1,95,0.5
1.0,1.772485613822937,1.0,0,1,96,0.5
1.0,1.3204898834228516,0.0,0,1,97,0.5
1.0,1.7224862575531006,1.0,0,1,98,0.5
1.0,1.4154901504516602,1.0,0,1,99,0.5
1.0,1.4074901342391968,1.0,0,1,100,0.5
1.0,2.203482151031494,1.0,0,1,101,0.5
1.0,1.4694894552230835,0.0,0,1,102,0.5
1.0,1.2794898748397827,0.0,0,1,103,0.5
1.0,1.5304887294769287,1.0,0,1,104,0.5
1.0,1.3484899997711182,0.0,0,1,105,0.5
0.0,1.6434872150421143,0.0,0,1,106,0.5
1.0,4.472432613372803,1.0,0,1,107,0.5
1.0,1.4284900426864624,1.0,0,1,108,0.5
1.0,1.511488914489746,0.0,0,1,109,0.5
1.0,3.8984742164611816,1.0,0,1,110,0.5
1.0,2.681504487991333,1.0,0,1,111,0.5
1.0,1.5544884204864502,1.0,0,1,112,0.5
1.0,1.5224888324737549,0.0,0,1,113,0.5
0.0,1.846484661102295,1.0,0,1,114,0.5
0.0,2.2564845085144043,1.0,0,1,115,0.5
0.0,1.8594844341278076,0.0,0,1,116,0.5
0.0,2.3074870109558105,0.0,0,1,117,0.5
1.0,2.7545080184936523,1.0,0,1,118,0.5
1.0,2.1314809322357178,1.0,0,1,119,0.5
1.0,2.221482992172241,1.0,0,1,120,0.5
1.0,1.293489933013916,1.0,0,1,121,0.5
1.0,1.4474897384643555,0.0,0,1,122,0.5
0.0,1.9724830389022827,0.0,0,1,123,0.5
1.0,2.0484819412231445,1.0,0,1,124,0.5
1.0,1.4034900665283203,1.0,0,1,125,0.5
1.0,1.5554883480072021,0.0,0,1,126,0.5
1.0,1.9634830951690674,0.0,0,1,127,0.5
0.0,1.65848708152771,0.0,0,1,128,0.5
1.0,4.721414566040039,0.0,0,1,129,0.5
1.0,3.831479072570801,0.0,0,1,130,0.5
0.0,3.0055196285247803,0.0,0,1,131,0.5
0.0,1.5534883737564087,0.0,0,1,132,0.5
1.0,1.676486849784851,1.0,0,1,133,0.5
1.0,2.0514819622039795,1.0,0,1,134,0.5
1.0,1.388490080833435,1.0,0,1,135,0.5
1.0,1.6414872407913208,0.0,0,1,136,0.5
1.0,1.5654882192611694,1.0,0,1,137,0.5
1.0,1.5744881629943848,1.0,0,1,138,0.5
1.0,1.5874879360198975,1.0,0,1,139,0.5
1.0,1.8674843311309814,1.0,0,1,140,0.5
1.0,2.1574807167053223,1.0,0,1,141,0.5
1.0,1.5724881887435913,1.0,0,1,142,0.5
1.0,1.419490098953247,1.0,0,1,143,0.5
1.0,1.4184901714324951,1.0,0,1,144,0.5
1.0,2.1494808197021484,1.0,0,1,145,0.5
1.0,1.3994901180267334,1.0,0,1,146,0.5
1.0,1.5524884462356567,1.0,0,1,147,0.5
1.0,1.5544884204864502,1.0,0,1,148,0.5
1.0,1.5714881420135498,0.0,0,1,149,0.5
1.0,3.0715227127075195,1.0,0,1,150,0.5
1.0,1.4054901599884033,0.0,0,1,151,0.5
1.0,3.6054954528808594,1.0,0,1,152,0.5
1.0,1.890484094619751,0.0,0,1,153,0.5
0.0,2.402491569519043,1.0,0,1,154,0.5
0.0,1.9954826831817627,0.0,0,1,155,0.5
1.0,1.5754880905151367,1.0,0,1,156,0.5
1.0,1.4604896306991577,1.0,0,1,157,0.5
1.0,1.6394872665405273,1.0,0,1,158,0.5
1.0,1.5994877815246582,1.0,0,1,159,0.5
1.0,1.493489146232605,1.0,0,1,160,0.5
1.0,1.562488317489624,0.0,0,1,161,0.5
0.0,1.4324899911880493,0.0,0,1,162,0.5
1.0,1.3704900741577148,1.0,0,1,163,0.5
1.0,2.2544846534729004,0.0,0,1,164,0.5
1.0,2.2954864501953125,1.0,0,1,165,0.5
1.0,1.470489501953125,1.0,0,1,166,0.5
1.0,1.448489785194397,1.0,0,1,167,0.5
1.0,1.4524897336959839,1.0,0,1,168,0.5
1.0,1.4124901294708252,1.0,0,1,169,0.5
1.0,1.3124899864196777,0.0,0,1,170,0.5
1.0,1.3594900369644165,1.0,0,1,171,0.5
1.0,1.7674856185913086,1.0,0,1,172,0.5
1.0,1.9704830646514893,1.0,0,1,173,0.5
1.0,1.492489218711853,0.0,0,1,174,0.5
1.0,1.6924866437911987,0.0,0,1,175,0.5
1.0,2.434493064880371,0.0,0,1,176,0.5
0.0,1.8084851503372192,0.0,0,1,177,0.5
0.0,2.8145108222961426,0.0,0,1,178,0.5
1.0,1.655487060546875,1.0,0,1,179,0.5
1.0,2.19448184967041,0.0,0,1,180,0.5
0.0,3.0015194416046143,0.0,0,1,181,0.5
0.0,2.9935190677642822,1.0,0,1,182,0.5
0.0,1.82048499584198,1.0,0,1,183,0.5
0.0,1.4214900732040405,0.0,0,1,184,0.5
1.0,1.9104838371276855,1.0,0,1,185,0.5
1.0,1.3624900579452515,1.0,0,1,186,0.5
1.0,1.890484094619751,1.0,0,1,187,0.5
1.0,1.9034838676452637,1.0,0,1,188,0.5
1.0,1.9054839611053467,1.0,0,1,189,0.5
1.0,1.3194899559020996,1.0,0,1,190,0.5
1.0,1.4394898414611816,1.0,0,1,191,0.5
0.0,1.5574883222579956,0.0,0,1,192,0.5
1.0,1.6024878025054932,0.0,0,1,193,0.5
1.0,1.7084864377975464,1.0,0,1,194,0.5
1.0,1.3464900255203247,0.0,0,1,195,0.5
1.0,1.9214837551116943,1.0,0,1,196,0.5
1.0,2.3194875717163086,0.0,0,1,197,0.5
1.0,1.2894898653030396,1.0,0,1,198,0.5
1.0,1.680486798286438,1.0,0,1,199,0.5
1.0,1.7454860210418701,1.0,0,1,200,0.5
1.0,1.9434833526611328,1.0,0,1,201,0.5
1.0,1.5104889869689941,0.0,0,1,202,0.5
0.0,1.6094876527786255,1.0,0,1,203,0.5
0.0,1.4184901714324951,0.0,0,1,204,0.5
1.0,1.426490068435669,1.0,0,1,205,0.5
1.0,1.750485897064209,1.0,0,1,206,0.5
1.0,1.449489712715149,1.0,0,1,207,0.5
1.0,1.60648775100708,0.0,0,1,208,0.5
1.0,1.7134864330291748,1.0,0,1,209,0.5
1.0,1.8104851245880127,1.0,0,1,210,0.5
1.0,2.406491756439209,0.0,0,1,211,0.5
1.0,1.799485206604004,1.0,0,1,212,0.5
1.0,2.3524889945983887,1.0,0,1,213,0.5
1.0,1.8024852275848389,1.0,0,1,214,0.5
1.0,2.2514843940734863,1.0,0,1,215,0.5
1.0,1.8024852275848389,1.0,0,1,216,0.5
1.0,1.6834867000579834,1.0,0,1,217,0.5
1.0,1.4474897384643555,1.0,0,1,218,0.5
1.0,1.845484733581543,0.0,0,1,219,0.5
1.0,1.4054901599884033,0.0,0,1,220,0.5
0.0,2.2304835319519043,1.0,0,1,221,0.5
1.0,2.0634818077087402,1.0,0,1,222,0.5
1.0,1.4074901342391968,0.0,0,1,223,0.5
0.0,2.073481798171997,0.0,0,1,224,0.5
0.0,2.7815091609954834,0.0,0,1,225,0.5
1.0,2.693505048751831,1.0,0,1,226,0.5
1.0,2.0084824562072754,1.0,0,1,227,0.5
1.0,1.364490032196045,0.0,0,1,228,0.5
1.0,1.6234874725341797,1.0,0,1,229,0.5
1.0,1.3284900188446045,1.0,0,1,230,0.5
1.0,1.7714855670928955,1.0,0,1,231,0.5
1.0,1.8214850425720215,0.0,0,1,232,0.5
0.0,2.898514747619629,0.0,0,1,233,0.5
0.0,2.0104825496673584,0.0,0,1,234,0.5
1.0,2.132481098175049,0.0,0,1,235,0.5
1.0,1.9704830646514893,0.0,0,1,236,0.5
1.0,1.6404873132705688,1.0,0,1,237,0.5
1.0,1.753485918045044,1.0,0,1,238,0.5
1.0,1.6634869575500488,1.0,0,1,239,0.5
1.0,1.7384860515594482,1.0,0,1,240,0.5
1.0,2.0144824981689453,1.0,0,1,241,0.5
1.0,1.7314860820770264,1.0,0,1,242,0.5
1.0,1.610487699508667,0.0,0,1,243,0.5
1.0,1.6674869060516357,0.0,0,1,244,0.5
0.0,1.8134851455688477,0.0,0,1,245,0.5
1.0,1.8574845790863037,1.0,0,1,246,0.5
1.0,2.113481283187866,1.0,0,1,247,0.5
1.0,1.6614869832992554,1.0,0,1,248,0.5
1.0,1.4514896869659424,0.0,0,1,249,0.5
1.0,1.3864901065826416,1.0,0,1,250,0.5
1.0,1.288489818572998,1.0,0,1,251,0.5
1.0,1.5484884977340698,1.0,0,1,252,0.5
1.0,1.6004878282546997,0.0,0,1,253,0.5
0.0,2.3454887866973877,0.0,0,1,254,0.5
0.0,3.438507556915283,0.0,0,1,255,0.5
0.0,1.9304835796356201,0.0,0,1,256,0.5
0.0,2.5875000953674316,1.0,0,1,257,0.5
0.0,1.7834854125976562,0.0,0,1,258,0.5
1.0,2.209482431411743,1.0,0,1,259,0.5
1.0,2.663503646850586,1.0,0,1,260,0.5
1.0,1.3394899368286133,1.0,0,1,261,0.5
0.0,1.6694869995117188,0.0,0,1,262,0.5
1.0,1.6654869318008423,1.0,0,1,263,0.5
1.0,1.5384886264801025,0.0,0,1,264,0.5
0.0,4.622421741485596,1.0,0,1,265,0.5
0.0,1.4334899187088013,0.0,0,1,266,0.5
1.0,1.632487416267395,0.0,0,1,267,0.5
1.0,1.4504897594451904,1.0,0,1,268,0.5
1.0,1.3484899997711182,1.0,0,1,269,0.5
1.0,1.3224899768829346,1.0,0,1,270,0.5
1.0,1.4734894037246704,0.0,0,1,271,0.5
1.0,4.528428554534912,1.0,0,1,272,0.5
1.0,1.4134901762008667,1.0,0,1,273,0.5
1.0,2.6075010299682617,0.0,0,1,274,0.5
1.0,2.6045007705688477,1.0,0,1,275,0.5
1.0,2.5744996070861816,1.0,0,1,276,0.5
1.0,1.7834854125976562,1.0,0,1,277,0.5
1.0,1.7224862575531006,1.0,0,1,278,0.5
1.0,1.6604870557785034,1.0,0,1,279,0.5
1.0,1.4814893007278442,1.0,0,1,280,0.5
1.0,1.7714855670928955,1.0,0,1,281,0.5
1.0,1.466489553451538,1.0,0,1,282,0.5
1.0,1.9904828071594238,0.0,0,1,283,0.5
1.0,3.2995176315307617,1.0,0,1,284,0.5
1.0,1.9874827861785889,1.0,0,1,285,0.5
1.0,1.4734894037246704,0.0,0,1,286,0.5
1.0,2.674504280090332,1.0,0,1,287,0.5
1.0,3.251521110534668,1.0,0,1,288,0.5
1.0,1.4554896354675293,0.0,0,1,289,0.5
1.0,1.8714842796325684,1.0,0,1,290,0.5
1.0,2.3644895553588867,0.0,0,1,291,0.5
0.0,1.7454860210418701,1.0,0,1,292,0.5
0.0,1.6224875450134277,0.0,0,1,293,0.5
1.0,2.3504891395568848,0.0,0,1,294,0.5
0.0,3.0615222454071045,1.0,0,1,295,0.5
0.0,2.116481304168701,1.0,0,1,296,0.5
0.0,1.4114900827407837,1.0,0,1,297,0.5
0.0,1.6754868030548096,0.0,0,1,298,0.5
1.0,2.035482168197632,0.0,0,1,299,0.5
0.0,1.5864880084991455,0.0,0,1,300,0.5
0.0,1.890484094619751,0.0,0,1,301,0.5
1.0,4.021465301513672,0.0,0,1,302,0.5
0.0,2.8095104694366455,0.0,0,1,303,0.5
1.0,2.3134872913360596,0.0,0,1,304,0.5
1.0,1.9844828844070435,1.0,0,1,305,0.5
1.0,1.6424872875213623,1.0,0,1,306,0.5
1.0,1.3164899349212646,1.0,0,1,307,0.5
1.0,1.6084877252578735,0.0,0,1,308,0.5
1.0,2.1434807777404785,0.0,0,1,309,0.5
0.0,2.703505516052246,1.0,0,1,310,0.5
0.0,2.2794857025146484,0.0,0,1,311,0.5
1.0,2.208482265472412,1.0,0,1,312,0.5
1.0,1.3834900856018066,1.0,0,1,313,0.5
1.0,1.5294886827468872,1.0,0,1,314,0.5
1.0,1.7884854078292847,0.0,0,1,315,0.5
1.0,1.6264874935150146,0.0,0,1,316,0.5
0.0,2.3084869384765625,1.0,0,1,317,0.5
0.0,1.9644831418991089,1.0,0,1,318,0.5
0.0,1.9944827556610107,0.0,0,1,319,0.5
0.0,5.760339736938477,0.0,0,1,320,0.5
0.0,1.7454860210418701,0.0,0,1,321,0.5
1.0,3.4935035705566406,0.0,0,1,322,0.5
0.0,2.1044812202453613,0.0,0,1,323,0.5
1.0,1.5544884204864502,1.0,0,1,324,0.5
1.0,1.3764901161193848,1.0,0,1,325,0.5
1.0,1.6524871587753296,0.0,0,1,326,0.5
1.0,2.748507499694824,1.0,0,1,327,0.5
1.0,1.8614845275878906,1.0,0,1,328,0.5
1.0,1.2794898748397827,1.0,0,1,329,0.5
1.0,1.3254899978637695,0.0,0,1,330,0.5
0.0,3.423508644104004,0.0,0,1,331,0.5
1.0,1.9324835538864136,1.0,0,1,332,0.5
1.0,2.2464842796325684,1.0,0,1,333,0.5
1.0,1.8154850006103516,0.0,0,1,334,0.5
1.0,1.5704882144927979,1.0,0,1,335,0.5
1.0,1.5164889097213745,1.0,0,1,336,0.5
1.0,1.4024901390075684,1.0,0,1,337,0.5
1.0,1.567488193511963,1.0,0,1,338,0.5
1.0,1.7344861030578613,0.0,0,1,339,0.5
1.0,1.8234848976135254,1.0,0,1,340,0.5
1.0,2.158480644226074,1.0,0,1,341,0.5
1.0,1.537488579750061,0.0,0,1,342,0.5
1.0,2.3114871978759766,1.0,0,1,343,0.5
1.0,1.6794867515563965,1.0,0,1,344,0.5
1.0,1.5864880084991455,1.0,0,1,345,0.5
1.0,1.62948739528656,1.0,0,1,346,0.5
1.0,1.5644882917404175,1.0,0,1,347,0.5
1.0,2.128480911254883,1.0,0,1,348,0.5
1.0,1.8954839706420898,1.0,0,1,349,0.5
1.0,1.3534899950027466,1.0,0,1,350,0.5
1.0,1.466489553451538,1.0,0,1,351,0.5
1.0,1.4024901390075684,1.0,0,1,352,0.5
1.0,1.3114899396896362,1.0,0,1,353,0.5
1.0,1.9134838581085205,0.0,0,1,354,0.5
1.0,2.5905003547668457,0.0,0,1,355,0.5
1.0,2.0604820251464844,0.0,0,1,356,0.5
1.0,2.436492919921875,0.0,0,1,357,0.5
1.0,2.5965003967285156,1.0,0,1,358,0.5
1.0,1.3434900045394897,1.0,0,1,359,0.5
1.0,1.3934900760650635,1.0,0,1,360,0.5
1.0,1.890484094619751,0.0,0,1,361,0.5
1.0,2.890514373779297,1.0,0,1,362,0.5
1.0,1.2984899282455444,1.0,0,1,363,0.5
1.0,1.6124876737594604,1.0,0,1,364,0.5
1.0,1.4294899702072144,1.0,0,1,365,0.5
1.0,1.4434897899627686,1.0,0,1,366,0.5
1.0,2.176480770111084,1.0,0,1,367,0.5
1.0,1.728486180305481,1.0,0,1,368,0.5
1.0,1.541488528251648,1.0,0,1,369,0.5
1.0,1.9294836521148682,1.0,0,1,370,0.5
1.0,1.9494833946228027,0.0,0,1,371,0.5
1.0,3.3925108909606934,1.0,0,1,372,0.5
1.0,1.39149010181427,1.0,0,1,373,0.5
1.0,1.6604870557785034,1.0,0,1,374,0.5
1.0,2.2644848823547363,0.0,0,1,375,0.5
1.0,1.4944891929626465,1.0,0,1,376,0.5
1.0,1.4594895839691162,1.0,0,1,377,0.5
1.0,1.416490077972412,0.0,0,1,378,0.5
1.0,2.0964813232421875,0.0,0,1,379,0.5
1.0,1.8144850730895996,0.0,0,1,380,0.5
0.0,1.6894867420196533,0.0,0,1,381,0.5
0.0,2.396491050720215,1.0,0,1,382,0.5
0.0,3.0685224533081055,0.0,0,1,383,0.5
1.0,2.5855000019073486,0.0,0,1,384,0.5
0.0,2.725506544113159,1.0,0,1,385,0.5
0.0,2.5574986934661865,0.0,0,1,386,0.5
1.0,1.5294886827468872,0.0,0,1,387,0.5
0.0,2.3614895343780518,0.0,0,1,388,0.5
1.0,1.4634895324707031,0.0,0,1,389,0.5
0.0,2.5384979248046875,0.0,0,1,390,0.5
0.0,2.8195109367370605,0.0,0,1,391,0.5
0.0,1.8254849910736084,0.0,0,1,392,0.5
1.0,1.8324848413467407,1.0,0,1,393,0.5
1.0,2.18748140335083,1.0,0,1,394,0.5
1.0,1.7804855108261108,1.0,0,1,395,0.5
1.0,1.6694869995117188,1.0,0,1,396,0.5
1.0,1.581488013267517,0.0,0,1,397,0.5
0.0,1.864484429359436,1.0,0,1,398,0.5
0.0,2.2424840927124023,1.0,0,1,399,0.5
0.0,1.5314886569976807,0.0,0,1,400,0.5
0.0,1.4114900827407837,0.0,0,1,401,0.5
1.0,1.441489815711975,1.0,0,1,402,0.5
1.0,2.076481819152832,1.0,0,1,403,0.5
1.0,1.4354898929595947,0.0,0,1,404,0.5
1.0,1.8624844551086426,1.0,0,1,405,0.5
1.0,1.4574896097183228,0.0,0,1,406,0.5
0.0,2.729506731033325,1.0,0,1,407,0.5
0.0,1.6934866905212402,0.0,0,1,408,0.5
1.0,1.3174899816513062,0.0,0,1,409,0.5
0.0,1.986482858657837,0.0,0,1,410,0.5
1.0,2.729506731033325,1.0,0,1,411,0.5
1.0,1.4724894762039185,0.0,0,1,412,0.5
1.0,2.910515308380127,1.0,0,1,413,0.5
1.0,1.3844900131225586,1.0,0,1,414,0.5
1.0,1.6254874467849731,1.0,0,1,415,0.5
1.0,2.406491756439209,1.0,0,1,416,0.5
1.0,1.4584896564483643,0.0,0,1,417,0.5
0.0,2.083481550216675,0.0,0,1,418,0.5
1.0,1.5964878797531128,1.0,0,1,419,0.5
1.0,1.5214887857437134,1.0,0,1,420,0.5
1.0,1.4824893474578857,1.0,0,1,421,0.5
1.0,1.6674869060516357,1.0,0,1,422,0.5
1.0,1.680486798286438,1.0,0,1,423,0.5
1.0,1.7744855880737305,1.0,0,1,424,0.5
1.0,1.3794900178909302,1.0,0,1,425,0.5
1.0,1.3204898834228516,0.0,0,1,426,0.5
0.0,2.392490863800049,0.0,0,1,427,0.5
1.0,2.1004815101623535,1.0,0,1,428,0.5
1.0,1.7384860515594482,1.0,0,1,429,0.5
1.0,1.4544897079467773,1.0,0,1,430,0.5
1.0,1.684486746788025,1.0,0,1,431,0.5
1.0,1.8474845886230469,1.0,0,1,432,0.5
1.0,2.375490188598633,1.0,0,1,433,0.5
1.0,1.5504884719848633,0.0,0,1,434,0.5
1.0,1.3634899854660034,1.0,0,1,435,0.5
1.0,1.8084851503372192,1.0,0,1,436,0.5
1.0,2.614501476287842,1.0,0,1,437,0.5
1.0,2.0114824771881104,1.0,0,1,438,0.5
1.0,1.3434900045394897,1.0,0,1,439,0.5
1.0,1.9304835796356201,1.0,0,1,440,0.5
1.0,1.5464885234832764,1.0,0,1,441,0.5
1.0,1.776485562324524,0.0,0,1,442,0.5
1.0,2.122481107711792,1.0,0,1,443,0.5
1.0,1.6214874982833862,1.0,0,1,444,0.5
1.0,1.5344886779785156,0.0,0,1,445,0.5
1.0,2.6175014972686768,1.0,0,1,446,0.5
1.0,1.4784893989562988,0.0,0,1,447,0.5
1.0,1.567488193511963,1.0,0,1,448,0.5
1.0,1.3994901180267334,1.0,0,1,449,0.5
1.0,2.0174825191497803,1.0,0,1,450,0.5
1.0,1.9874827861785889,0.0,0,1,451,0.5
1.0,2.4994959831237793,0.0,0,1,452,0.5
0.0,1.8484846353530884,0.0,0,1,453,0.5
0.0,1.8154850006103516,0.0,0,1,454,0.5
1.0,1.470489501953125,1.0,0,1,455,0.5
1.0,1.4534896612167358,1.0,0,1,456,0.5
1.0,1.4064900875091553,1.0,0,1,457,0.5
1.0,1.290489912033081,1.0,0,1,458,0.5
1.0,1.3994901180267334,1.0,0,1,459,0.5
1.0,1.2684898376464844,1.0,0,1,460,0.5
1.0,1.894484043121338,0.0,0,1,461,0.5
1.0,2.0994813442230225,1.0,0,1,462,0.5
1.0,1.908483862876892,1.0,0,1,463,0.5
1.0,1.5224888324737549,1.0,0,1,464,0.5
1.0,1.3734900951385498,0.0,0,1,465,0.5
1.0,2.6175014972686768,1.0,0,1,466,0.5
1.0,1.8044852018356323,1.0,0,1,467,0.5
1.0,1.4824893474578857,1.0,0,1,468,0.5
1.0,1.511488914489746,1.0,0,1,469,0.5
1.0,1.4464898109436035,1.0,0,1,470,0.5
1.0,1.887484073638916,1.0,0,1,471,0.5
1.0,1.4854892492294312,1.0,0,1,472,0.5
1.0,1.4794893264770508,1.0,0,1,473,0.5
1.0,1.3404899835586548,1.0,0,1,474,0.5
1.0,1.4944891929626465,1.0,0,1,475,0.5
1.0,1.841484785079956,0.0,0,1,476,0.5
1.0,2.0944814682006836,1.0,0,1,477,0.5
1.0,1.4514896869659424,1.0,0,1,478,0.5
1.0,1.5044890642166138,1.0,0,1,479,0.5
1.0,1.8884841203689575,0.0,0,1,480,0.5
1.0,1.4504897594451904,0.0,0,1,481,0.5
1.0,1.709486484527588,1.0,0,1,482,0.5
1.0,1.4604896306991577,0.0,0,1,483,0.5
1.0,2.7755088806152344,1.0,0,1,484,0.5
1.0,1.6604870557785034,1.0,0,1,485,0.5
1.0,1.8284848928451538,0.0,0,1,486,0.5
1.0,1.4434897899627686,1.0,0,1,487,0.5
1.0,1.5994877815246582,0.0,0,1,488,0.5
1.0,2.642502784729004,1.0,0,1,489,0.5
1.0,2.383490562438965,0.0,0,1,490,0.5
1.0,1.6034877300262451,1.0,0,1,491,0.5
1.0,1.540488600730896,1.0,0,1,492,0.5
1.0,1.3114899396896362,1.0,0,1,493,0.5
1.0,1.8274848461151123,0.0,0,1,494,0.5
1.0,1.6024878025054932,1.0,0,1,495,0.5
1.0,1.3494900465011597,1.0,0,1,496,0.5
1.0,1.4904892444610596,1.0,0,1,497,0.5
1.0,1.633487343788147,0.0,0,1,498,0.5
0.0,4.385438919067383,0.0,0,1,499,0.5
0.0,1.3474899530410767,1.0,0,1,500,0.5
1.0,4.5424275398254395,1.0,0,2,1,0.5
0.0,1.9584832191467285,1.0,0,2,2,0.5
1.0,1.6464872360229492,0.0,0,2,3,0.5
0.0,1.7334861755371094,1.0,0,2,4,0.5
0.0,2.0624818801879883,0.0,0,2,5,0.5
1.0,2.992518901824951,1.0,0,2,6,0.5
1.0,1.3434900045394897,1.0,0,2,7,0.5
1.0,1.8264849185943604,1.0,0,2,8,0.5
1.0,2.113481283187866,0.0,0,2,9,0.5
0.0,2.3114871978759766,0.0,0,2,10,0.5
1.0,2.2224831581115723,0.0,0,2,11,0.5
0.0,2.67950439453125,1.0,0,2,12,0.5
0.0,1.39149010181427,0.0,0,2,13,0.5
0.0,1.7304861545562744,0.0,0,2,14,0.5
0.0,2.3484888076782227,1.0,0,2,15,0.5
0.0,1.9584832191467285,0.0,0,2,16,0.5
0.0,2.3134872913360596,1.0,0,2,17,0.5
0.0,2.391490936279297,1.0,0,2,18,0.5
0.0,2.183481216430664,0.0,0,2,19,0.5
0.0,1.9734830856323242,0.0,0,2,20,0.5
1.0,1.655487060546875,1.0,0,2,21,0.5
1.0,1.6314873695373535,0.0,0,2,22,0.5
0.0,1.4064900875091553,0.0,0,2,23,0.5
0.0,1.5694881677627563,1.0,0,2,24,0.5
0.0,1.5224888324737549,0.0,0,2,25,0.5
1.0,2.2884860038757324,0.0,0,2,26,0.5
0.0,1.3804900646209717,1.0,0,2,27,0.5
0.0,1.941483497619629,0.0,0,2,28,0.5
0.0,1.4844893217086792,1.0,0,2,29,0.5
0.0,1.441489815711975,0.0,0,2,30,0.5
0.0,2.2344837188720703,1.0,0,2,31,0.5
0.0,3.0445213317871094,1.0,0,2,32,0.5
0.0,2.0524821281433105,1.0,0,2,33,0.5
0.0,1.7184863090515137,0.0,0,2,34,0.5
0.0,2.8035101890563965,0.0,0,2,35,0.5
0.0,2.65250301361084,0.0,0,2,36,0.5
1.0,2.725506544113159,1.0,0,2,37,0.5
1.0,1.5824880599975586,1.0,0,2,38,0.5
1.0,2.024482250213623,1.0,0,2,39,0.5
1.0,1.2554898262023926,1.0,0,2,40,0.5
1.0,1.5104889869689941,1.0,0,2,41,0.5
1.0,1.7584857940673828,1.0,0,2,42,0.5
1.0,1.4354898929595947,0.0,0,2,43,0.5
1.0,1.422490119934082,0.0,0,2,44,0.5
1.0,1.9914827346801758,0.0,0,2,45,0.5
1.0,1.8804842233657837,1.0,0,2,46,0.5
1.0,1.7454860210418701,0.0,0,2,47,0.5
0.0,3.4785046577453613,0.0,0,2,48,0.5
0.0,2.949517011642456,1.0,0,2,49,0.5
0.0,1.5104889869689941,1.0,0,2,50,0.5
0.0,1.5804880857467651,1.0,0,2,51,0.5
0.0,1.5034890174865723,1.0,0,2,52,0.5
0.0,1.868484377861023,0.0,0,2,53,0.5
0.0,2.1014814376831055,1.0,0,2,54,0.5
0.0,1.4174901247024536,1.0,0,2,55,0.5
0.0,2.4734947681427,1.0,0,2,56,0.5
0.0,1.65848708152771,0.0,0,2,57,0.5
1.0,3.1275253295898438,1.0,0,2,58,0.5
1.0,1.4734894037246704,1.0,0,2,59,0.5
1.0,2.5344977378845215,1.0,0,2,60,0.5
1.0,1.3534899950027466,1.0,0,2,61,0.5
1.0,1.8514845371246338,1.0,0,2,62,0.5
1.0,1.8374848365783691,1.0,0,2,63,0.5
1.0,1.3474899530410767,0.0,0,2,64,0.5
1.0,2.443493366241455,1.0,0,2,65,0.5
1.0,1.6244875192642212,1.0,0,2,66,0.5
1.0,2.204482078552246,0.0,0,2,67,0.5
0.0,1.893484115600586,0.0,0,2,68,0.5
0.0,2.972517967224121,1.0,0,2,69,0.5
0.0,1.4434897899627686,0.0,0,2,70,0.5
1.0,1.6424872875213623,0.0,0,2,71,0.5
1.0,1.7364860773086548,0.0,0,2,72,0.5
0.0,1.5954878330230713,1.0,0,2,73,0.5
0.0,2.12148118019104,0.0,0,2,74,0.5
1.0,1.6484872102737427,1.0,0,2,75,0.5
0.0,1.9194836616516113,0.0,0,2,76,0.5
1.0,2.2654850482940674,1.0,0,2,77,0.5
1.0,1.8884841203689575,0.0,0,2,78,0.5
1.0,2.211482524871826,0.0,0,2,79,0.5
0.0,2.1054813861846924,0.0,0,2,80,0.5
1.0,2.893514394760132,1.0,0,2,81,0.5
1.0,2.1104812622070312,1.0,0,2,82,0.5
1.0,1.9714829921722412,0.0,0,2,83,0.5
1.0,2.2664852142333984,0.0,0,2,84,0.5
1.0,1.607487678527832,1.0,0,2,85,0.5
1.0,2.021482467651367,0.0,0,2,86,0.5
0.0,2.5674991607666016,0.0,0,2,87,0.5
1.0,1.8024852275848389,1.0,0,2,88,0.5
1.0,1.4944891929626465,0.0,0,2,89,0.5
1.0,1.4774893522262573,0.0,0,2,90,0.5
1.0,1.4204901456832886,1.0,0,2,91,0.5
1.0,1.588487982749939,0.0,0,2,92,0.5
1.0,1.9184837341308594,1.0,0,2,93,0.5
1.0,1.588487982749939,0.0,0,2,94,0.5
1.0,1.8994839191436768,1.0,0,2,95,0.5
1.0,1.9584832191467285,0.0,0,2,96,0.5
0.0,2.08048152923584,1.0,0,2,97,0.5
0.0,1.9534833431243896,1.0,0,2,98,0.5
0.0,1.8554844856262207,0.0,0,2,99,0.5
1.0,2.5754995346069336,1.0,0,2,100,0.5
1.0,1.8614845275878906,1.0,0,2,101,0.5
1.0,1.9204837083816528,0.0,0,2,102,0.5
1.0,1.7254862785339355,1.0,0,2,103,0.5
1.0,1.5704882144927979,0.0,0,2,104,0.5
1.0,1.7314860820770264,0.0,0,2,105,0.5
0.0,2.083481550216675,0.0,0,2,106,0.5
1.0,1.6464872360229492,1.0,0,2,107,0.5
1.0,1.3734900951385498,0.0,0,2,108,0.5
1.0,1.5744881629943848,1.0,0,2,109,0.5
1.0,1.5104889869689941,1.0,0,2,110,0.5
1.0,1.628487467765808,1.0,0,2,111,0.5
1.0,1.5394885540008545,1.0,0,2,112,0.5
1.0,1.724486231803894,0.0,0,2,113,0.5
0.0,4.406437397003174,0.0,0,2,114,0.5
1.0,3.4945034980773926,1.0,0,2,115,0.5
1.0,1.4314899444580078,1.0,0,2,116,0.5
1.0,1.4204901456832886,0.0,0,2,117,0.5
1.0,1.8314847946166992,0.0,0,2,118,0.5
1.0,2.5244970321655273,0.0,0,2,119,0.5
0.0,2.5294973850250244,0.0,0,2,120,0.5
0.0,1.357490062713623,0.0,0,2,121,0.5
1.0,2.424492359161377,0.0,0,2,122,0.5
1.0,3.8794755935668945,1.0,0,2,123,0.5
1.0,1.3964900970458984,1.0,0,2,124,0.5
1.0,1.3464900255203247,1.0,0,2,125,0.5
1.0,2.0154824256896973,1.0,0,2,126,0.5
1.0,1.7424860000610352,0.0,0,2,127,0.5
1.0,1.3224899768829346,0.0,0,2,128,0.5
1.0,1.7214863300323486,1.0,0,2,129,0.5
1.0,1.6314873695373535,1.0,0,2,130,0.5
0.0,1.4754893779754639,0.0,0,2,131,0.5
1.0,1.5804880857467651,1.0,0,2,132,0.5
1.0,1.9764829874038696,1.0,0,2,133,0.5
1.0,1.4604896306991577,0.0,0,2,134,0.5
0.0,2.8265113830566406,1.0,0,2,135,0.5
0.0,1.6384873390197754,1.0,0,2,136,0.5
0.0,1.7864854335784912,0.0,0,2,137,0.5
1.0,1.49648916721344,0.0,0,2,138,0.5
0.0,2.5614988803863525,0.0,0,2,139,0.5
0.0,2.962517738342285,1.0,0,2,140,0.5
0.0,1.6534870862960815,1.0,0,2,141,0.5
0.0,2.19448184967041,1.0,0,2,142,0.5
0.0,1.3444900512695312,0.0,0,2,143,0.5
1.0,1.5244888067245483,0.0,0,2,144,0.5
0.0,3.204524517059326,0.0,0,2,145,0.5
1.0,1.7224862575531006,0.0,0,2,146,0.5
0.0,1.8984839916229248,1.0,0,2,147,0.5
1.0,1.4564896821975708,0.0,0,2,148,0.5
0.0,2.1484808921813965,0.0,0,2,149,0.5
1.0,1.3094899654388428,0.0,0,2,150,0.5
0.0,1.839484691619873,1.0,0,2,151,0.5
0.0,2.1534807682037354,0.0,0,2,152,0.5
0.0,3.6904892921447754,0.0,0,2,153,0.5
1.0,3.738485813140869,0.0,0,2,154,0.5
1.0,1.5944879055023193,1.0,0,2,155,0.5
1.0,1.6814868450164795,1.0,0,2,156,0.5
1.0,1.5064890384674072,1.0,0,2,157,0.5
1.0,2.5995006561279297,0.0,0,2,158,0.5
1.0,2.713505983352661,0.0,0,2,159,0.5
0.0,4.406437397003174,0.0,0,2,160,0.5
1.0,1.4134901762008667,1.0,0,2,161,0.5
1.0,2.0024826526641846,1.0,0,2,162,0.5
1.0,1.6164876222610474,0.0,0,2,163,0.5
1.0,1.9994826316833496,0.0,0,2,164,0.5
1.0,1.4814893007278442,1.0,0,2,165,0.5
1.0,1.9184837341308594,0.0,0,2,166,0.5
1.0,1.39149010181427,0.0,0,2,167,0.5
0.0,2.5124964714050293,1.0,0,2,168,0.5
0.0,1.7774856090545654,0.0,0,2,169,0.5
1.0,1.559488296508789,1.0,0,2,170,0.5
1.0,1.4154901504516602,0.0,0,2,171,0.5
1.0,1.5224888324737549,1.0,0,2,172,0.5
1.0,1.352489948272705,0.0,0,2,173,0.5
1.0,2.0614819526672363,1.0,0,2,174,0.5
1.0,2.1554806232452393,1.0,0,2,175,0.5
1.0,1.318489909172058,1.0,0,2,176,0.5
1.0,1.567488193511963,1.0,0,2,177,0.5
1.0,1.4634895324707031,1.0,0,2,178,0.5
1.0,1.4984891414642334,0.0,0,2,179,0.5
1.0,1.4594895839691162,0.0,0,2,180,0.5
1.0,1.3264899253845215,1.0,0,2,181,0.5
1.0,1.352489948272705,0.0,0,2,182,0.5
0.0,2.2544846534729004,1.0,0,2,183,0.5
0.0,1.7634856700897217,1.0,0,2,184,0.5
0.0,1.395490050315857,1.0,0,2,185,0.5
0.0,1.7974853515625,0.0,0,2,186,0.5
1.0,1.6404873132705688,1.0,0,2,187,0.5
1.0,1.39749014377594,0.0,0,2,188,0.5
1.0,1.544488549232483,1.0,0,2,189,0.5
1.0,2.7935097217559814,0.0,0,2,190,0.5
0.0,1.6444872617721558,1.0,0,2,191,0.5
0.0,1.5064890384674072,1.0,0,2,192,0.5
0.0,2.158480644226074,1.0,0,2,193,0.5
0.0,1.885484218597412,1.0,0,2,194,0.5
0.0,1.3564900159835815,1.0,0,2,195,0.5
0.0,1.4594895839691162,1.0,0,2,196,0.5
0.0,1.5434885025024414,0.0,0,2,197,0.5
0.0,2.3434886932373047,1.0,0,2,198,0.5
0.0,2.446493625640869,1.0,0,2,199,0.5
1.0,1.423490047454834,1.0,0,2,200,0.5
1.0,1.5874879360198975,1.0,0,2,201,0.5
1.0,1.749485969543457,0.0,0,2,202,0.5
0.0,1.7384860515594482,0.0,0,2,203,0.5
0.0,2.3484888076782227,1.0,0,2,204,0.5
0.0,1.7634856700897217,0.0,0,2,205,0.5
0.0,3.3665127754211426,0.0,0,2,206,0.5
0.0,1.8364847898483276,1.0,0,2,207,0.5
0.0,1.3434900045394897,0.0,0,2,208,0.5
1.0,2.891514301300049,1.0,0,2,209,0.5
1.0,2.0174825191497803,0.0,0,2,210,0.5
1.0,2.7455074787139893,0.0,0,2,211,0.5
0.0,2.2494843006134033,0.0,0,2,212,0.5
0.0,2.2744855880737305,0.0,0,2,213,0.5
0.0,1.680486798286438,0.0,0,2,214,0.5
1.0,1.9144837856292725,1.0,0,2,215,0.5
1.0,1.5754880905151367,1.0,0,2,216,0.5
1.0,1.7824854850769043,1.0,0,2,217,0.5
1.0,1.6494871377944946,1.0,0,2,218,0.5
1.0,1.2774899005889893,0.0,0,2,219,0.5
1.0,1.6424872875213623,1.0,0,2,220,0.5
1.0,1.4734894037246704,0.0,0,2,221,0.5
1.0,2.977518320083618,0.0,0,2,222,0.5
1.0,3.398510456085205,1.0,0,2,223,0.5
1.0,1.4014900922775269,0.0,0,2,224,0.5
1.0,2.5474982261657715,1.0,0,2,225,0.5
1.0,1.5104889869689941,1.0,0,2,226,0.5
1.0,1.838484764099121,0.0,0,2,227,0.5
1.0,1.4404898881912231,1.0,0,2,228,0.5
1.0,1.541488528251648,1.0,0,2,229,0.5
1.0,1.4284900426864624,1.0,0,2,230,0.5
1.0,1.5504884719848633,1.0,0,2,231,0.5
1.0,1.9484833478927612,1.0,0,2,232,0.5
1.0,1.419490098953247,0.0,0,2,233,0.5
1.0,1.6434872150421143,1.0,0,2,234,0.5
1.0,1.3504899740219116,0.0,0,2,235,0.5
1.0,1.6954865455627441,0.0,0,2,236,0.5
1.0,3.0685224533081055,1.0,0,2,237,0.5
1.0,1.4954891204833984,1.0,0,2,238,0.5
1.0,2.172480583190918,1.0,0,2,239,0.5
1.0,1.9464833736419678,0.0,0,2,240,0.5
1.0,2.371490001678467,1.0,0,2,241,0.5
1.0,1.8004852533340454,1.0,0,2,242,0.5
1.0,1.3744900226593018,1.0,0,2,243,0.5
1.0,1.5434885025024414,1.0,0,2,244,0.5
1.0,1.44448983669281,1.0,0,2,245,0.5
1.0,1.7594857215881348,0.0,0,2,246,0.5
1.0,1.8714842796325684,1.0,0,2,247,0.5
1.0,1.2894898653030396,1.0,0,2,248,0.5
1.0,1.6384873390197754,1.0,0,2,249,0.5
0.0,2.5454981327056885,0.0,0,2,250,0.5
1.0,1.4594895839691162,1.0,0,2,251,0.5
1.0,1.6354873180389404,0.0,0,2,252,0.5
1.0,1.9154837131500244,0.0,0,2,253,0.5
0.0,1.4304900169372559,0.0,0,2,254,0.5
1.0,2.3014867305755615,1.0,0,2,255,0.5
1.0,1.7144863605499268,1.0,0,2,256,0.5
1.0,1.981482982635498,1.0,0,2,257,0.5
1.0,1.751485824584961,1.0,0,2,258,0.5
1.0,1.7794854640960693,0.0,0,2,259,0.5
0.0,1.684486746788025,0.0,0,2,260,0.5
1.0,1.8564845323562622,0.0,0,2,261,0.5
1.0,1.5094889402389526,1.0,0,2,262,0.5
1.0,1.5124889612197876,0.0,0,2,263,0.5
1.0,1.423490047454834,1.0,0,2,264,0.5
1.0,1.466489553451538,0.0,0,2,265,0.5
1.0,2.5814998149871826,0.0,0,2,266,0.5
0.0,2.657503366470337,1.0,0,2,267,0.5
0.0,1.816485047340393,1.0,0,2,268,0.5
0.0,1.4694894552230835,0.0,0,2,269,0.5
1.0,2.721506357192993,1.0,0,2,270,0.5
1.0,2.2344837188720703,1.0,0,2,271,0.5
1.0,1.5794880390167236,1.0,0,2,272,0.5
1.0,1.5474884510040283,1.0,0,2,273,0.5
1.0,1.466489553451538,1.0,0,2,274,0.5
1.0,1.8614845275878906,0.0,0,2,275,0.5
1.0,1.5704882144927979,0.0,0,2,276,0.5
1.0,2.4934957027435303,1.0,0,2,277,0.5
1.0,1.4904892444610596,0.0,0,2,278,0.5
0.0,3.9254722595214844,1.0,0,2,279,0.5
0.0,2.0454821586608887,0.0,0,2,280,0.5
1.0,1.9804829359054565,0.0,0,2,281,0.5
1.0,2.962517738342285,1.0,0,2,282,0.5
0.0,1.9294836521148682,1.0,0,2,283,0.5
0.0,2.5594987869262695,1.0,0,2,284,0.5
1.0,1.6964865922927856,1.0,0,2,285,0.5
0.0,3.0275206565856934,0.0,0,2,286,0.5
1.0,1.9304835796356201,1.0,0,2,287,0.5
1.0,1.3964900970458984,1.0,0,2,288,0.5
1.0,1.753485918045044,1.0,0,2,289,0.5
1.0,2.437493085861206,1.0,0,2,290,0.5
1.0,1.5974878072738647,1.0,0,2,291,0.5
1.0,1.4724894762039185,0.0,0,2,292,0.5
0.0,1.65848708152771,0.0,0,2,293,0.5
1.0,1.3454899787902832,0.0,0,2,294,0.5
0.0,2.2804856300354004,0.0,0,2,295,0.5
1.0,2.634502410888672,0.0,0,2,296,0.5
0.0,3.2865185737609863,1.0,0,2,297,0.5
0.0,3.276519298553467,0.0,0,2,298,0.5
0.0,2.8585128784179688,0.0,0,2,299,0.5
1.0,2.3524889945983887,1.0,0,2,300,0.5
1.0,2.188481330871582,1.0,0,2,301,0.5
1.0,1.9234836101531982,1.0,0,2,302,0.5
1.0,4.151455879211426,1.0,0,2,303,0.5
1.0,1.4004900455474854,1.0,0,2,304,0.5
1.0,1.611487627029419,1.0,0,2,305,0.5
1.0,1.891484022140503,0.0,0,2,306,0.5
1.0,1.4844893217086792,0.0,0,2,307,0.5
0.0,2.6015007495880127,1.0,0,2,308,0.5
0.0,1.9804829359054565,0.0,0,2,309,0.5
1.0,1.7744855880737305,0.0,0,2,310,0.5
0.0,1.751485824584961,0.0,0,2,311,0.5
1.0,2.431492805480957,0.0,0,2,312,0.5
1.0,2.016482353210449,1.0,0,2,313,0.5
1.0,1.8994839191436768,0.0,0,2,314,0.5
1.0,3.7334861755371094,0.0,0,2,315,0.5
0.0,3.0915236473083496,1.0,0,2,316,0.5
0.0,1.7304861545562744,1.0,0,2,317,0.5
0.0,2.1014814376831055,0.0,0,2,318,0.5
0.0,1.7874853610992432,0.0,0,2,319,0.5
1.0,1.5294886827468872,1.0,0,2,320,0.5
1.0,1.6214874982833862,1.0,0,2,321,0.5
1.0,1.5074889659881592,1.0,0,2,322,0.5
1.0,1.2494897842407227,1.0,0,2,323,0.5
1.0,1.489489197731018,1.0,0,2,324,0.5
1.0,1.8824841976165771,0.0,0,2,325,0.5
1.0,3.2195234298706055,1.0,0,2,326,0.5
1.0,1.3834900856018066,1.0,0,2,327,0.5
1.0,1.511488914489746,0.0,0,2,328,0.5
1.0,2.0884814262390137,1.0,0,2,329,0.5
1.0,1.318489909172058,0.0,0,2,330,0.5
1.0,1.607487678527832,1.0,0,2,331,0.5
1.0,1.33148992061615,1.0,0,2,332,0.5
1.0,1.3054898977279663,1.0,0,2,333,0.5
1.0,2.930516242980957,0.0,0,2,334,0.5
0.0,2.2344837188720703,1.0,0,2,335,0.5
0.0,1.885484218597412,0.0,0,2,336,0.5
1.0,1.2514897584915161,0.0,0,2,337,0.5
1.0,2.3184876441955566,0.0,0,2,338,0.5
1.0,2.358489513397217,1.0,0,2,339,0.5
1.0,1.9424834251403809,0.0,0,2,340,0.5
1.0,1.3144899606704712,1.0,0,2,341,0.5
1.0,1.8254849910736084,0.0,0,2,342,0.5
1.0,1.6704869270324707,1.0,0,2,343,0.5
1.0,1.8484846353530884,0.0,0,2,344,0.5
1.0,2.1014814376831055,0.0,0,2,345,0.5
0.0,1.8144850730895996,1.0,0,2,346,0.5
0.0,1.6624870300292969,0.0,0,2,347,0.5
0.0,2.217482805252075,0.0,0,2,348,0.5
1.0,1.3874900341033936,0.0,0,2,349,0.5
0.0,2.0024826526641846,1.0,0,2,350,0.5
0.0,1.7654857635498047,1.0,0,2,351,0.5
0.0,2.629502058029175,1.0,0,2,352,0.5
0.0,1.6724869012832642,1.0,0,2,353,0.5
0.0,1.3854900598526,1.0,0,2,354,0.5
0.0,1.470489501953125,0.0,0,2,355,0.5
1.0,2.375490188598633,1.0,0,2,356,0.5
1.0,1.7864854335784912,0.0,0,2,357,0.5
0.0,2.5424981117248535,0.0,0,2,358,0.5
1.0,3.2585206031799316,0.0,0,2,359,0.5
0.0,4.5844244956970215,1.0,0,2,360,0.5
0.0,1.581488013267517,1.0,0,2,361,0.5
0.0,1.754485845565796,1.0,0,2,362,0.5
0.0,1.5334886312484741,1.0,0,2,363,0.5
0.0,1.5454884767532349,0.0,0,2,364,0.5
1.0,1.352489948272705,0.0,0,2,365,0.5
0.0,1.7854855060577393,1.0,0,2,366,0.5
0.0,1.6414872407913208,1.0,0,2,367,0.5
0.0,1.7864854335784912,1.0,0,2,368,0.5
0.0,1.8524845838546753,0.0,0,2,369,0.5
1.0,1.3284900188446045,0.0,0,2,370,0.5
0.0,2.169480562210083,0.0,0,2,371,0.5
1.0,2.18048095703125,1.0,0,2,372,0.5
1.0,1.321489930152893,1.0,0,2,373,0.5
1.0,1.354490041732788,1.0,0,2,374,0.5
1.0,2.610501289367676,1.0,0,2,375,0.5
1.0,1.5954878330230713,1.0,0,2,376,0.5
1.0,1.9464833736419678,0.0,0,2,377,0.5
1.0,1.4724894762039185,1.0,0,2,378,0.5
1.0,1.3384900093078613,0.0,0,2,379,0.5
1.0,1.4574896097183228,1.0,0,2,380,0.5
1.0,1.4634895324707031,0.0,0,2,381,0.5
1.0,1.4034900665283203,1.0,0,2,382,0.5
1.0,1.36149001121521,1.0,0,2,383,0.5
1.0,2.219482898712158,0.0,0,2,384,0.5
0.0,3.2815189361572266,0.0,0,2,385,0.5
1.0,2.3514890670776367,1.0,0,2,386,0.5
1.0,1.7754855155944824,0.0,0,2,387,0.5
1.0,2.7965097427368164,1.0,0,2,388,0.5
1.0,1.7304861545562744,0.0,0,2,389,0.5
0.0,1.4644895792007446,0.0,0,2,390,0.5
0.0,1.9934828281402588,1.0,0,2,391,0.5
0.0,2.035482168197632,1.0,0,2,392,0.5
0.0,2.202482223510742,1.0,0,2,393,0.5
1.0,1.2994898557662964,1.0,0,2,394,0.5
1.0,2.035482168197632,1.0,0,2,395,0.5
0.0,1.8574845790863037,1.0,0,2,396,0.5
0.0,1.709486484527588,1.0,0,2,397,0.5
0.0,2.204482078552246,0.0,0,2,398,0.5
1.0,1.8304848670959473,0.0,0,2,399,0.5
1.0,2.209482431411743,1.0,0,2,400,0.5
1.0,1.7044864892959595,1.0,0,2,401,0.5
1.0,1.7324861288070679,1.0,0,2,402,0.5
1.0,1.795485258102417,0.0,0,2,403,0.5
1.0,3.978468418121338,1.0,0,2,404,0.5
1.0,1.4314899444580078,1.0,0,2,405,0.5
1.0,2.0174825191497803,0.0,0,2,406,0.5
1.0,2.907515048980713,0.0,0,2,407,0.5
0.0,1.7874853610992432,1.0,0,2,408,0.5
0.0,1.566488265991211,0.0,0,2,409,0.5
1.0,2.3114871978759766,1.0,0,2,410,0.5
1.0,2.1064813137054443,1.0,0,2,411,0.5
1.0,1.6734869480133057,0.0,0,2,412,0.5
0.0,2.906515121459961,0.0,0,2,413,0.5
0.0,3.1005239486694336,1.0,0,2,414,0.5
0.0,2.2484841346740723,0.0,0,2,415,0.5
1.0,4.898401737213135,0.0,0,2,416,0.5
0.0,2.452493667602539,0.0,0,2,417,0.5
1.0,2.445493459701538,0.0,0,2,418,0.5
0.0,1.7774856090545654,1.0,0,2,419,0.5
0.0,1.986482858657837,0.0,0,2,420,0.5
1.0,2.8765134811401367,0.0,0,2,421,0.5
0.0,1.9044839143753052,0.0,0,2,422,0.5
1.0,1.7604857683181763,1.0,0,2,423,0.5
1.0,1.5304887294769287,1.0,0,2,424,0.5
1.0,1.4604896306991577,0.0,0,2,425,0.5
1.0,1.776485562324524,1.0,0,2,426,0.5
1.0,1.3024898767471313,1.0,0,2,427,0.5
1.0,2.076481819152832,1.0,0,2,428,0.5
1.0,1.3224899768829346,1.0,0,2,429,0.5
1.0,1.489489197731018,0.0,0,2,430,0.5
1.0,1.5454884767532349,1.0,0,2,431,0.5
1.0,2.4784951210021973,1.0,0,2,432,0.5
1.0,1.5864880084991455,1.0,0,2,433,0.5
1.0,1.2994898557662964,0.0,0,2,434,0.5
1.0,4.4454345703125,0.0,0,2,435,0.5
1.0,2.7695086002349854,0.0,0,2,436,0.5
1.0,2.1524806022644043,1.0,0,2,437,0.5
1.0,2.5594987869262695,0.0,0,2,438,0.5
0.0,1.8654844760894775,0.0,0,2,439,0.5
1.0,1.5994877815246582,1.0,0,2,440,0.5
1.0,1.8574845790863037,1.0,0,2,441,0.5
1.0,1.540488600730896,1.0,0,2,442,0.5
1.0,1.659487009048462,0.0,0,2,443,0.5
1.0,2.404491424560547,0.0,0,2,444,0.5
0.0,1.39749014377594,0.0,0,2,445,0.5
1.0,2.384490489959717,1.0,0,2,446,0.5
1.0,1.84348464012146,1.0,0,2,447,0.5
1.0,1.364490032196045,0.0,0,2,448,0.5
1.0,2.5664992332458496,1.0,0,2,449,0.5
1.0,1.44448983669281,0.0,0,2,450,0.5
1.0,2.5334975719451904,1.0,0,2,451,0.5
1.0,2.0054826736450195,0.0,0,2,452,0.5
1.0,1.3734900951385498,1.0,0,2,453,0.5
1.0,1.9214837551116943,0.0,0,2,454,0.5
1.0,1.3894901275634766,1.0,0,2,455,0.5
1.0,1.388490080833435,0.0,0,2,456,0.5
0.0,1.9224836826324463,1.0,0,2,457,0.5
0.0,2.120481014251709,1.0,0,2,458,0.5
0.0,2.702505588531494,0.0,0,2,459,0.5
0.0,2.7425074577331543,0.0,0,2,460,0.5
1.0,2.199481964111328,0.0,0,2,461,0.5
0.0,3.273519515991211,0.0,0,2,462,0.5
0.0,1.6254874467849731,0.0,0,2,463,0.5
0.0,1.6954865455627441,1.0,0,2,464,0.5
0.0,1.8664844036102295,1.0,0,2,465,0.5
0.0,1.680486798286438,0.0,0,2,466,0.5
1.0,1.4954891204833984,0.0,0,2,467,0.5
0.0,2.668503761291504,0.0,0,2,468,0.5
0.0,1.628487467765808,1.0,0,2,469,0.5
0.0,1.4214900732040405,1.0,0,2,470,0.5
0.0,1.3864901065826416,1.0,0,2,471,0.5
0.0,1.3854900598526,0.0,0,2,472,0.5
1.0,2.8515124320983887,1.0,0,2,473,0.5
1.0,1.449489712715149,1.0,0,2,474,0.5
1.0,1.4384899139404297,1.0,0,2,475,0.5
1.0,2.5824999809265137,1.0,0,2,476,0.5
1.0,1.3104898929595947,1.0,0,2,477,0.5
1.0,1.3114899396896362,1.0,0,2,478,0.5
1.0,2.455493927001953,0.0,0,2,479,0.5
1.0,1.4784893989562988,1.0,0,2,480,0.5
1.0,1.3044898509979248,0.0,0,2,481,0.5
0.0,2.2624850273132324,1.0,0,2,482,0.5
1.0,2.1424808502197266,1.0,0,2,483,0.5
0.0,1.8344848155975342,0.0,0,2,484,0.5
1.0,1.588487982749939,1.0,0,2,485,0.5
1.0,1.5294886827468872,1.0,0,2,486,0.5
1.0,1.632487416267395,0.0,0,2,487,0.5
1.0,1.8344848155975342,0.0,0,2,488,0.5
1.0,1.6964865922927856,1.0,0,2,489,0.5
1.0,3.1785264015197754,1.0,0,2,490,0.5
1.0,1.5094889402389526,1.0,0,2,491,0.5
1.0,1.6134876012802124,1.0,0,2,492,0.5
1.0,2.444493293762207,1.0,0,2,493,0.5
1.0,1.8234848976135254,0.0,0,2,494,0.5
0.0,1.8534846305847168,0.0,0,2,495,0.5
1.0,1.795485258102417,0.0,0,2,496,0.5
1.0,2.610501289367676,1.0,0,2,497,0.5
1.0,1.3454899787902832,0.0,0,2,498,0.5
1.0,1.493489146232605,1.0,0,2,499,0.5
1.0,1.65848708152771,1.0,0,2,500,0.5
1.0,2.610326051712036,0.0,1,0,1,0.5
0.0,2.263309955596924,0.0,1,0,2,0.5
0.0,3.144351005554199,0.0,1,0,3,0.5
1.0,1.6413124799728394,1.0,1,0,4,0.5
1.0,1.2473149299621582,1.0,1,0,5,0.5
1.0,1.4133152961730957,1.0,1,0,6,0.5
1.0,2.2243080139160156,1.0,1,0,7,0.5
1.0,1.9833080768585205,1.0,1,0,8,0.5
1.0,2.592325210571289,1.0,1,0,9,0.5
1.0,1.4383150339126587,1.0,1,0,10,0.5
1.0,1.5863131284713745,1.0,1,0,11,0.5
1.0,1.6223126649856567,0.0,1,0,12,0.5
1.0,5.378192901611328,1.0,1,0,13,0.5
1.0,1.6273126602172852,0.0,1,0,14,0.5
1.0,1.5573135614395142,1.0,1,0,15,0.5
1.0,1.822310209274292,1.0,1,0,16,0.5
1.0,1.5263139009475708,0.0,1,0,17,0.5
1.0,2.2293081283569336,1.0,1,0,18,0.5
1.0,1.8253101110458374,1.0,1,0,19,0.5
1.0,1.5513136386871338,1.0,1,0,20,0.5
1.0,1.6713120937347412,1.0,1,0,21,0.5
1.0,1.448314905166626,1.0,1,0,22,0.5
1.0,1.5163140296936035,1.0,1,0,23,0.5
1.0,1.67631196975708,0.0,1,0,24,0.5
1.0,2.0843067169189453,1.0,1,0,25,0.5
1.0,1.8033103942871094,1.0,1,0,26,0.5
1.0,2.291311264038086,0.0,1,0,27,0.5
1.0,4.934224605560303,0.0,1,0,28,0.5
1.0,1.6493123769760132,1.0,1,0,29,0.5
1.0,1.9923079013824463,0.0,1,0,30,0.5
1.0,2.008307695388794,0.0,1,0,31,0.5
0.0,1.678312063217163,0.0,1,0,32,0.5
0.0,3.687314987182617,0.0,1,0,33,0.5
1.0,1.565313458442688,1.0,1,0,34,0.5
1.0,1.6963117122650146,1.0,1,0,35,0.5
1.0,1.452314853668213,1.0,1,0,36,0.5
1.0,1.3393150568008423,1.0,1,0,37,0.5
1.0,1.496314287185669,1.0,1,0,38,0.5
1.0,1.7573109865188599,1.0,1,0,39,0.5
1.0,1.779310703277588,1.0,1,0,40,0.5
1.0,1.8563096523284912,0.0,1,0,41,0.5
0.0,4.581250190734863,0.0,1,0,42,0.5
1.0,2.143306016921997,1.0,1,0,43,0.5
0.0,1.4763145446777344,0.0,1,0,44,0.5
1.0,1.4153152704238892,1.0,1,0,45,0.5
1.0,1.536313772201538,0.0,1,0,46,0.5
1.0,3.308342456817627,1.0,1,0,47,0.5
1.0,1.6913118362426758,1.0,1,0,48,0.5
1.0,1.6073129177093506,1.0,1,0,49,0.5
1.0,1.5633134841918945,1.0,1,0,50,0.5
1.0,1.5043141841888428,0.0,1,0,51,0.5
1.0,1.6253126859664917,1.0,1,0,52,0.5
1.0,1.7643108367919922,1.0,1,0,53,0.5
1.0,1.8063104152679443,1.0,1,0,54,0.5
1.0,1.7913105487823486,1.0,1,0,55,0.5
1.0,1.5193140506744385,1.0,1,0,56,0.5
1.0,1.7573109865188599,1.0,1,0,57,0.5
1.0,1.6013129949569702,1.0,1,0,58,0.5
1.0,1.7983105182647705,1.0,1,0,59,0.5
1.0,2.0233075618743896,1.0,1,0,60,0.5
1.0,1.7353112697601318,1.0,1,0,61,0.5
1.0,1.7083115577697754,0.0,1,0,62,0.5
1.0,2.0323073863983154,1.0,1,0,63,0.5
1.0,1.749311089515686,1.0,1,0,64,0.5
1.0,1.6243126392364502,1.0,1,0,65,0.5
1.0,1.8733094930648804,1.0,1,0,66,0.5
1.0,1.297315001487732,1.0,1,0,67,0.5
1.0,2.6763291358947754,1.0,1,0,68,0.5
1.0,1.395315170288086,1.0,1,0,69,0.5
1.0,1.4813145399093628,1.0,1,0,70,0.5
1.0,1.6083128452301025,1.0,1,0,71,0.5
1.0,1.4683146476745605,1.0,1,0,72,0.5
1.0,1.7003116607666016,1.0,1,0,73,0.5
1.0,1.6303125619888306,1.0,1,0,74,0.5
1.0,1.5453137159347534,1.0,1,0,75,0.5
1.0,1.466314673423767,0.0,1,0,76,0.5
0.0,1.7253113985061646,1.0,1,0,77,0.5
0.0,1.6743121147155762,0.0,1,0,78,0.5
1.0,1.9203088283538818,1.0,1,0,79,0.5
1.0,1.4003151655197144,1.0,1,0,80,0.5
1.0,2.044307231903076,1.0,1,0,81,0.5
1.0,1.51431405544281,1.0,1,0,82,0.5
1.0,1.7443110942840576,1.0,1,0,83,0.5
1.0,1.4933143854141235,1.0,1,0,84,0.5
1.0,2.357314109802246,0.0,1,0,85,0.5
0.0,3.495328903198242,1.0,1,0,86,0.5
0.0,1.5973130464553833,0.0,1,0,87,0.5
0.0,2.1823060512542725,1.0,1,0,88,0.5
0.0,3.088348388671875,0.0,1,0,89,0.5
1.0,1.6993117332458496,1.0,1,0,90,0.5
1.0,2.6973299980163574,0.0,1,0,91,0.5
1.0,2.344313621520996,1.0,1,0,92,0.5
1.0,2.001307964324951,1.0,1,0,93,0.5
1.0,1.9503085613250732,1.0,1,0,94,0.5
1.0,2.1873064041137695,1.0,1,0,95,0.5
1.0,1.4053151607513428,1.0,1,0,96,0.5
1.0,1.7043116092681885,0.0,1,0,97,0.5
1.0,1.495314359664917,0.0,1,0,98,0.5
0.0,1.9093090295791626,0.0,1,0,99,0.5
1.0,1.981308102607727,1.0,1,0,100,0.5
1.0,2.335313320159912,1.0,1,0,101,0.5
1.0,1.536313772201538,1.0,1,0,102,0.5
1.0,1.8343100547790527,1.0,1,0,103,0.5
1.0,1.3363150358200073,1.0,1,0,104,0.5
1.0,1.5503135919570923,1.0,1,0,105,0.5
1.0,1.5413137674331665,1.0,1,0,106,0.5
1.0,1.426315188407898,1.0,1,0,107,0.5
1.0,1.4093152284622192,1.0,1,0,108,0.5
1.0,1.4683146476745605,1.0,1,0,109,0.5
1.0,1.6163127422332764,1.0,1,0,110,0.5
1.0,1.4573148488998413,1.0,1,0,111,0.5
1.0,1.4363150596618652,1.0,1,0,112,0.5
1.0,1.9293087720870972,1.0,1,0,113,0.5
1.0,1.911309003829956,1.0,1,0,114,0.5
1.0,2.266309976577759,1.0,1,0,115,0.5
1.0,1.7823107242584229,1.0,1,0,116,0.5
1.0,1.4203152656555176,1.0,1,0,117,0.5
1.0,1.7373112440109253,1.0,1,0,118,0.5
1.0,2.2103073596954346,1.0,1,0,119,0.5
1.0,1.7633109092712402,1.0,1,0,120,0.5
1.0,1.3133150339126587,1.0,1,0,121,0.5
1.0,2.059307098388672,1.0,1,0,122,0.5
1.0,1.6943118572235107,1.0,1,0,123,0.5
1.0,1.492314338684082,1.0,1,0,124,0.5
1.0,1.7923104763031006,0.0,1,0,125,0.5
0.0,3.5353260040283203,0.0,1,0,126,0.5
1.0,3.124350070953369,1.0,1,0,127,0.5
1.0,1.426315188407898,1.0,1,0,128,0.5
1.0,1.3743151426315308,1.0,1,0,129,0.5
1.0,2.2353086471557617,1.0,1,0,130,0.5
1.0,2.270310163497925,1.0,1,0,131,0.5
1.0,2.14530611038208,1.0,1,0,132,0.5
1.0,1.4383150339126587,1.0,1,0,133,0.5
1.0,1.9673082828521729,1.0,1,0,134,0.5
1.0,1.4133152961730957,1.0,1,0,135,0.5
1.0,1.6333125829696655,1.0,1,0,136,0.5
1.0,1.820310115814209,1.0,1,0,137,0.5
1.0,1.7173115015029907,1.0,1,0,138,0.5
1.0,1.5853132009506226,0.0,1,0,139,0.5
1.0,2.296311378479004,1.0,1,0,140,0.5
1.0,1.9223089218139648,1.0,1,0,141,0.5
1.0,1.6923117637634277,1.0,1,0,142,0.5
1.0,1.7853106260299683,1.0,1,0,143,0.5
1.0,1.6563122272491455,0.0,1,0,144,0.5
1.0,3.0003442764282227,1.0,1,0,145,0.5
1.0,1.4543148279190063,1.0,1,0,146,0.5
1.0,1.8313100337982178,1.0,1,0,147,0.5
1.0,1.5983129739761353,0.0,1,0,148,0.5
0.0,2.1593058109283447,0.0,1,0,149,0.5
1.0,1.6213127374649048,1.0,1,0,150,0.5
1.0,1.7403111457824707,0.0,1,0,151,0.5
1.0,1.866309642791748,1.0,1,0,152,0.5
1.0,2.091306686401367,1.0,1,0,153,0.5
1.0,1.779310703277588,1.0,1,0,154,0.5
1.0,1.5003142356872559,1.0,1,0,155,0.5
1.0,1.7463111877441406,0.0,1,0,156,0.5
1.0,2.050307273864746,1.0,1,0,157,0.5
1.0,1.9033091068267822,1.0,1,0,158,0.5
1.0,1.6813119649887085,1.0,1,0,159,0.5
1.0,2.2583096027374268,1.0,1,0,160,0.5
1.0,1.5223139524459839,1.0,1,0,161,0.5
1.0,1.4043152332305908,1.0,1,0,162,0.5
1.0,1.5893131494522095,1.0,1,0,163,0.5
1.0,3.117349624633789,1.0,1,0,164,0.5
1.0,1.7473111152648926,1.0,1,0,165,0.5
1.0,1.5863131284713745,1.0,1,0,166,0.5
1.0,1.5343137979507446,1.0,1,0,167,0.5
1.0,2.1133065223693848,1.0,1,0,168,0.5
1.0,1.5493136644363403,0.0,1,0,169,0.5
0.0,2.7013301849365234,0.0,1,0,170,0.5
0.0,2.1253061294555664,0.0,1,0,171,0.5
1.0,1.7293113470077515,1.0,1,0,172,0.5
0.0,1.632312536239624,0.0,1,0,173,0.5
1.0,1.5743132829666138,0.0,1,0,174,0.5
1.0,2.274310350418091,1.0,1,0,175,0.5
1.0,1.7823107242584229,1.0,1,0,176,0.5
1.0,1.912308931350708,0.0,1,0,177,0.5
0.0,2.008307695388794,0.0,1,0,178,0.5
1.0,1.4843144416809082,1.0,1,0,179,0.5
1.0,1.5093141794204712,0.0,1,0,180,0.5
1.0,2.1813058853149414,0.0,1,0,181,0.5
1.0,2.4873204231262207,0.0,1,0,182,0.5
1.0,2.5033211708068848,1.0,1,0,183,0.5
1.0,1.3323150873184204,1.0,1,0,184,0.5
1.0,2.7603330612182617,1.0,1,0,185,0.5
1.0,1.9053090810775757,1.0,1,0,186,0.5
1.0,1.5233139991760254,0.0,1,0,187,0.5
1.0,1.4753146171569824,0.0,1,0,188,0.5
1.0,1.8383100032806396,0.0,1,0,189,0.5
0.0,1.8393099308013916,1.0,1,0,190,0.5
0.0,1.7443110942840576,1.0,1,0,191,0.5
0.0,1.6243126392364502,0.0,1,0,192,0.5
0.0,2.530322313308716,1.0,1,0,193,0.5
0.0,2.2253079414367676,1.0,1,0,194,0.5
0.0,1.517314076423645,0.0,1,0,195,0.5
0.0,3.5083279609680176,0.0,1,0,196,0.5
0.0,2.60632586479187,0.0,1,0,197,0.5
1.0,1.8773094415664673,1.0,1,0,198,0.5
1.0,1.443315029144287,1.0,1,0,199,0.5
1.0,1.3443150520324707,1.0,1,0,200,0.5
1.0,1.451314926147461,1.0,1,0,201,0.5
1.0,1.4573148488998413,1.0,1,0,202,0.5
1.0,1.6193127632141113,1.0,1,0,203,0.5
1.0,1.451314926147461,1.0,1,0,204,0.5
1.0,1.8443098068237305,1.0,1,0,205,0.5
1.0,1.7223114967346191,0.0,1,0,206,0.5
1.0,1.8753094673156738,1.0,1,0,207,0.5
1.0,1.5763132572174072,1.0,1,0,208,0.5
1.0,1.2703149318695068,1.0,1,0,209,0.5
1.0,1.536313772201538,1.0,1,0,210,0.5
1.0,2.0263075828552246,1.0,1,0,211,0.5
1.0,1.7543110847473145,1.0,1,0,212,0.5
1.0,1.5603134632110596,1.0,1,0,213,0.5
1.0,1.776310682296753,1.0,1,0,214,0.5
1.0,1.6233127117156982,1.0,1,0,215,0.5
1.0,1.613312840461731,1.0,1,0,216,0.5
1.0,2.4473185539245605,1.0,1,0,217,0.5
1.0,3.1523513793945312,1.0,1,0,218,0.5
1.0,1.4673147201538086,1.0,1,0,219,0.5
1.0,1.6303125619888306,1.0,1,0,220,0.5
1.0,1.7873106002807617,1.0,1,0,221,0.5
1.0,1.7573109865188599,1.0,1,0,222,0.5
1.0,1.5223139524459839,1.0,1,0,223,0.5
1.0,1.8483097553253174,1.0,1,0,224,0.5
1.0,1.8133102655410767,0.0,1,0,225,0.5
0.0,1.7223114967346191,0.0,1,0,226,0.5
1.0,3.665316581726074,0.0,1,0,227,0.5
1.0,2.100306510925293,1.0,1,0,228,0.5
1.0,1.4683146476745605,1.0,1,0,229,0.5
1.0,1.389315128326416,1.0,1,0,230,0.5
1.0,1.4163151979446411,1.0,1,0,231,0.5
1.0,2.0673069953918457,1.0,1,0,232,0.5
1.0,1.3703151941299438,0.0,1,0,233,0.5
0.0,3.076347827911377,0.0,1,0,234,0.5
0.0,1.5453137159347534,1.0,1,0,235,0.5
0.0,2.065307140350342,0.0,1,0,236,0.5
1.0,3.4013357162475586,0.0,1,0,237,0.5
0.0,2.553323268890381,0.0,1,0,238,0.5
0.0,2.813335418701172,0.0,1,0,239,0.5
0.0,2.05830717086792,0.0,1,0,240,0.5
1.0,1.5033142566680908,1.0,1,0,241,0.5
1.0,1.4873144626617432,1.0,1,0,242,0.5
1.0,1.7363111972808838,1.0,1,0,243,0.5
1.0,1.425315260887146,1.0,1,0,244,0.5
1.0,2.1813058853149414,1.0,1,0,245,0.5
1.0,1.654312252998352,0.0,1,0,246,0.5
1.0,1.9783082008361816,1.0,1,0,247,0.5
1.0,1.3863152265548706,1.0,1,0,248,0.5
1.0,1.5323138236999512,0.0,1,0,249,0.5
0.0,3.951295852661133,0.0,1,0,250,0.5
1.0,2.0313074588775635,1.0,1,0,251,0.5
1.0,1.2863149642944336,1.0,1,0,252,0.5
1.0,1.958308458328247,1.0,1,0,253,0.5
1.0,2.147305965423584,1.0,1,0,254,0.5
1.0,1.5093141794204712,1.0,1,0,255,0.5
1.0,2.1823060512542725,1.0,1,0,256,0.5
1.0,1.864309549331665,1.0,1,0,257,0.5
1.0,1.3723151683807373,1.0,1,0,258,0.5
1.0,1.8133102655410767,1.0,1,0,259,0.5
1.0,2.0373072624206543,1.0,1,0,260,0.5
1.0,1.8743095397949219,1.0,1,0,261,0.5
1.0,1.5953130722045898,1.0,1,0,262,0.5
1.0,1.7613109350204468,1.0,1,0,263,0.5
1.0,2.151305913925171,1.0,1,0,264,0.5
1.0,1.4973143339157104,0.0,1,0,265,0.5
1.0,1.5513136386871338,1.0,1,0,266,0.5
1.0,1.4043152332305908,1.0,1,0,267,0.5
1.0,1.583313226699829,0.0,1,0,268,0.5
1.0,4.010291576385498,0.0,1,0,269,0.5
1.0,1.6413124799728394,1.0,1,0,270,0.5
1.0,1.6073129177093506,1.0,1,0,271,0.5
1.0,1.6073129177093506,1.0,1,0,272,0.5
1.0,1.683311939239502,1.0,1,0,273,0.5
1.0,1.4003151655197144,0.0,1,0,274,0.5
1.0,1.4393150806427002,1.0,1,0,275,0.5
1.0,1.4153152704238892,1.0,1,0,276,0.5
1.0,1.588313102722168,1.0,1,0,277,0.5
1.0,1.7033116817474365,1.0,1,0,278,0.5
1.0,1.9843080043792725,1.0,1,0,279,0.5
1.0,1.6483123302459717,1.0,1,0,280,0.5
1.0,1.661312222480774,1.0,1,0,281,0.5
1.0,1.4983142614364624,1.0,1,0,282,0.5
1.0,1.661312222480774,1.0,1,0,283,0.5
1.0,1.355315089225769,1.0,1,0,284,0.5
1.0,1.9073090553283691,1.0,1,0,285,0.5
1.0,1.9193089008331299,1.0,1,0,286,0.5
1.0,1.4613147974014282,1.0,1,0,287,0.5
1.0,1.391315221786499,1.0,1,0,288,0.5
1.0,1.7293113470077515,1.0,1,0,289,0.5
1.0,1.5733133554458618,1.0,1,0,290,0.5
1.0,1.5593135356903076,1.0,1,0,291,0.5
1.0,1.770310878753662,1.0,1,0,292,0.5
1.0,2.4383180141448975,1.0,1,0,293,0.5
1.0,1.2783149480819702,0.0,1,0,294,0.5
1.0,1.6373125314712524,1.0,1,0,295,0.5
1.0,2.4263174533843994,1.0,1,0,296,0.5
1.0,1.328315019607544,1.0,1,0,297,0.5
1.0,2.531322479248047,0.0,1,0,298,0.5
1.0,1.801310420036316,1.0,1,0,299,0.5
1.0,1.889309287071228,1.0,1,0,300,0.5
1.0,1.443315029144287,0.0,1,0,301,0.5
1.0,3.3223414421081543,1.0,1,0,302,0.5
1.0,1.9733082056045532,1.0,1,0,303,0.5
1.0,1.6603121757507324,1.0,1,0,304,0.5
1.0,1.679311990737915,0.0,1,0,305,0.5
1.0,2.336313247680664,1.0,1,0,306,0.5
1.0,2.0333075523376465,1.0,1,0,307,0.5
1.0,1.4563148021697998,1.0,1,0,308,0.5
1.0,1.7603108882904053,1.0,1,0,309,0.5
1.0,2.4393181800842285,1.0,1,0,310,0.5
1.0,1.394315242767334,1.0,1,0,311,0.5
1.0,1.385315179824829,1.0,1,0,312,0.5
1.0,1.5193140506744385,1.0,1,0,313,0.5
1.0,2.0333075523376465,1.0,1,0,314,0.5
1.0,1.6033129692077637,1.0,1,0,315,0.5
1.0,1.5323138236999512,1.0,1,0,316,0.5
1.0,1.3443150520324707,1.0,1,0,317,0.5
1.0,1.8923091888427734,1.0,1,0,318,0.5
1.0,2.336313247680664,1.0,1,0,319,0.5
1.0,2.7043304443359375,1.0,1,0,320,0.5
1.0,2.4323177337646484,1.0,1,0,321,0.5
1.0,2.0863068103790283,1.0,1,0,322,0.5
1.0,1.4203152656555176,1.0,1,0,323,0.5
1.0,3.4283337593078613,1.0,1,0,324,0.5
1.0,2.0683069229125977,1.0,1,0,325,0.5
1.0,1.5313138961791992,1.0,1,0,326,0.5
1.0,2.0833067893981934,1.0,1,0,327,0.5
1.0,1.6503123044967651,1.0,1,0,328,0.5
1.0,2.140305995941162,1.0,1,0,329,0.5
1.0,1.6423124074935913,1.0,1,0,330,0.5
1.0,2.318312406539917,0.0,1,0,331,0.5
0.0,2.1853060722351074,0.0,1,0,332,0.5
0.0,3.105349063873291,0.0,1,0,333,0.5
0.0,2.9413414001464844,1.0,1,0,334,0.5
0.0,2.0893068313598633,0.0,1,0,335,0.5
1.0,3.326341152191162,1.0,1,0,336,0.5
1.0,3.0143449306488037,1.0,1,0,337,0.5
1.0,1.6563122272491455,1.0,1,0,338,0.5
1.0,2.099306583404541,1.0,1,0,339,0.5
1.0,1.5533136129379272,1.0,1,0,340,0.5
1.0,1.4233152866363525,1.0,1,0,341,0.5
1.0,1.6013129949569702,1.0,1,0,342,0.5
1.0,1.9093090295791626,1.0,1,0,343,0.5
1.0,1.5803132057189941,1.0,1,0,344,0.5
1.0,1.9033091068267822,1.0,1,0,345,0.5
1.0,1.6123127937316895,0.0,1,0,346,0.5
0.0,2.6873297691345215,1.0,1,0,347,0.5
0.0,1.5813132524490356,1.0,1,0,348,0.5
0.0,2.4333176612854004,0.0,1,0,349,0.5
0.0,2.7563328742980957,0.0,1,0,350,0.5
1.0,3.1933507919311523,1.0,1,0,351,0.5
1.0,1.9703083038330078,1.0,1,0,352,0.5
1.0,2.2173075675964355,1.0,1,0,353,0.5
1.0,1.6113128662109375,1.0,1,0,354,0.5
1.0,2.2493090629577637,1.0,1,0,355,0.5
1.0,1.7063117027282715,0.0,1,0,356,0.5
0.0,1.7003116607666016,0.0,1,0,357,0.5
0.0,2.376315116882324,0.0,1,0,358,0.5
1.0,2.9643425941467285,1.0,1,0,359,0.5
1.0,1.4763145446777344,1.0,1,0,360,0.5
1.0,1.3813152313232422,0.0,1,0,361,0.5
1.0,1.4303151369094849,1.0,1,0,362,0.5
1.0,2.550323247909546,1.0,1,0,363,0.5
1.0,2.14530611038208,1.0,1,0,364,0.5
1.0,1.8753094673156738,1.0,1,0,365,0.5
1.0,1.724311351776123,1.0,1,0,366,0.5
1.0,1.5593135356903076,1.0,1,0,367,0.5
1.0,1.5373138189315796,1.0,1,0,368,0.5
1.0,1.7733107805252075,1.0,1,0,369,0.5
1.0,1.3703151941299438,1.0,1,0,370,0.5
1.0,2.3993163108825684,1.0,1,0,371,0.5
1.0,1.6753120422363281,0.0,1,0,372,0.5
1.0,2.4323177337646484,1.0,1,0,373,0.5
1.0,2.3993163108825684,1.0,1,0,374,0.5
1.0,2.527322292327881,1.0,1,0,375,0.5
1.0,1.7133115530014038,0.0,1,0,376,0.5
1.0,1.6153128147125244,1.0,1,0,377,0.5
1.0,1.5253139734268188,1.0,1,0,378,0.5
1.0,1.3203150033950806,1.0,1,0,379,0.5
1.0,1.727311372756958,0.0,1,0,380,0.5
1.0,2.537322521209717,1.0,1,0,381,0.5
1.0,1.686311960220337,1.0,1,0,382,0.5
1.0,1.6693121194839478,0.0,1,0,383,0.5
1.0,3.647317886352539,1.0,1,0,384,0.5
1.0,2.4643192291259766,1.0,1,0,385,0.5
1.0,1.3733150959014893,1.0,1,0,386,0.5
1.0,1.6723120212554932,0.0,1,0,387,0.5
1.0,3.375337600708008,0.0,1,0,388,0.5
1.0,2.4703195095062256,1.0,1,0,389,0.5
1.0,1.56631338596344,1.0,1,0,390,0.5
1.0,1.5933130979537964,1.0,1,0,391,0.5
1.0,1.5863131284713745,1.0,1,0,392,0.5
1.0,1.636312484741211,1.0,1,0,393,0.5
1.0,1.3763151168823242,1.0,1,0,394,0.5
1.0,1.8883092403411865,1.0,1,0,395,0.5
1.0,3.3413400650024414,1.0,1,0,396,0.5
1.0,2.618326425552368,1.0,1,0,397,0.5
1.0,1.5723133087158203,1.0,1,0,398,0.5
1.0,1.820310115814209,1.0,1,0,399,0.5
1.0,2.54632306098938,1.0,1,0,400,0.5
1.0,2.1893062591552734,1.0,1,0,401,0.5
1.0,1.7063117027282715,1.0,1,0,402,0.5
1.0,1.3673151731491089,1.0,1,0,403,0.5
1.0,2.553323268890381,1.0,1,0,404,0.5
1.0,1.6463123559951782,1.0,1,0,405,0.5
1.0,1.701311707496643,0.0,1,0,406,0.5
1.0,2.869338035583496,1.0,1,0,407,0.5
1.0,2.318312406539917,1.0,1,0,408,0.5
1.0,1.6043128967285156,1.0,1,0,409,0.5
1.0,1.394315242767334,1.0,1,0,410,0.5
1.0,1.385315179824829,1.0,1,0,411,0.5
1.0,1.6703120470046997,1.0,1,0,412,0.5
1.0,1.3483151197433472,1.0,1,0,413,0.5
1.0,1.654312252998352,0.0,1,0,414,0.5
1.0,1.9913079738616943,1.0,1,0,415,0.5
1.0,1.5743132829666138,1.0,1,0,416,0.5
1.0,2.0843067169189453,1.0,1,0,417,0.5
1.0,1.3363150358200073,1.0,1,0,418,0.5
1.0,1.3073149919509888,1.0,1,0,419,0.5
1.0,1.6693121194839478,0.0,1,0,420,0.5
0.0,1.657312273979187,0.0,1,0,421,0.5
1.0,1.7893105745315552,1.0,1,0,422,0.5
1.0,1.6743121147155762,0.0,1,0,423,0.5
0.0,2.1683056354522705,0.0,1,0,424,0.5
0.0,2.0203075408935547,0.0,1,0,425,0.5
0.0,3.588322162628174,0.0,1,0,426,0.5
0.0,1.7983105182647705,0.0,1,0,427,0.5
1.0,1.863309621810913,1.0,1,0,428,0.5
1.0,1.9423086643218994,1.0,1,0,429,0.5
1.0,1.5053142309188843,1.0,1,0,430,0.5
1.0,1.4123152494430542,1.0,1,0,431,0.5
1.0,1.3693151473999023,1.0,1,0,432,0.5
1.0,1.4083151817321777,1.0,1,0,433,0.5
1.0,1.631312608718872,1.0,1,0,434,0.5
1.0,1.9513084888458252,1.0,1,0,435,0.5
1.0,1.8723094463348389,1.0,1,0,436,0.5
1.0,1.8433098793029785,1.0,1,0,437,0.5
1.0,2.0353074073791504,0.0,1,0,438,0.5
1.0,2.818335771560669,1.0,1,0,439,0.5
1.0,2.2283082008361816,1.0,1,0,440,0.5
1.0,2.155305862426758,1.0,1,0,441,0.5
1.0,1.6483123302459717,1.0,1,0,442,0.5
1.0,1.5323138236999512,1.0,1,0,443,0.5
1.0,1.544313669204712,1.0,1,0,444,0.5
1.0,2.274310350418091,1.0,1,0,445,0.5
1.0,1.8273100852966309,1.0,1,0,446,0.5
1.0,1.6273126602172852,1.0,1,0,447,0.5
1.0,1.4123152494430542,0.0,1,0,448,0.5
0.0,2.6733288764953613,0.0,1,0,449,0.5
1.0,2.1773056983947754,1.0,1,0,450,0.5
1.0,1.6663120985031128,0.0,1,0,451,0.5
1.0,2.569324016571045,1.0,1,0,452,0.5
1.0,1.6893118619918823,1.0,1,0,453,0.5
1.0,2.0253076553344727,0.0,1,0,454,0.5
0.0,1.820310115814209,0.0,1,0,455,0.5
1.0,1.4113152027130127,1.0,1,0,456,0.5
1.0,1.4003151655197144,1.0,1,0,457,0.5
1.0,1.5633134841918945,1.0,1,0,458,0.5
1.0,1.686311960220337,1.0,1,0,459,0.5
1.0,1.4353151321411133,1.0,1,0,460,0.5
1.0,1.8323099613189697,1.0,1,0,461,0.5
1.0,1.9043090343475342,1.0,1,0,462,0.5
1.0,1.7403111457824707,1.0,1,0,463,0.5
1.0,1.893309235572815,1.0,1,0,464,0.5
1.0,1.4843144416809082,1.0,1,0,465,0.5
1.0,1.3503150939941406,1.0,1,0,466,0.5
1.0,1.5283138751983643,1.0,1,0,467,0.5
1.0,1.7733107805252075,1.0,1,0,468,0.5
1.0,1.4783145189285278,0.0,1,0,469,0.5
1.0,2.013307571411133,1.0,1,0,470,0.5
1.0,1.56631338596344,1.0,1,0,471,0.5
1.0,1.5893131494522095,1.0,1,0,472,0.5
1.0,1.388315200805664,1.0,1,0,473,0.5
1.0,1.5063141584396362,1.0,1,0,474,0.5
1.0,1.8513097763061523,1.0,1,0,475,0.5
1.0,1.5073142051696777,1.0,1,0,476,0.5
1.0,1.4093152284622192,1.0,1,0,477,0.5
1.0,1.587313175201416,1.0,1,0,478,0.5
1.0,1.5243139266967773,1.0,1,0,479,0.5
1.0,1.680311918258667,1.0,1,0,480,0.5
1.0,1.5483136177062988,1.0,1,0,481,0.5
1.0,1.7883105278015137,1.0,1,0,482,0.5
1.0,2.528322219848633,1.0,1,0,483,0.5
1.0,2.0893068313598633,1.0,1,0,484,0.5
1.0,2.0213074684143066,1.0,1,0,485,0.5
1.0,1.4713146686553955,1.0,1,0,486,0.5
1.0,1.7043116092681885,0.0,1,0,487,0.5
0.0,3.947296142578125,0.0,1,0,488,0.5
1.0,1.569313406944275,1.0,1,0,489,0.5
1.0,1.469314694404602,1.0,1,0,490,0.5
1.0,1.8593096733093262,1.0,1,0,491,0.5
1.0,2.289310932159424,0.0,1,0,492,0.5
0.0,1.4563148021697998,0.0,1,0,493,0.5
1.0,2.2533092498779297,1.0,1,0,494,0.5
1.0,1.753311038017273,1.0,1,0,495,0.5
1.0,2.1253061294555664,1.0,1,0,496,0.5
1.0,1.6983118057250977,1.0,1,0,497,0.5
1.0,2.893339157104492,1.0,1,0,498,0.5
1.0,1.4713146686553955,1.0,1,0,499,0.5
1.0,2.0783069133758545,1.0,1,0,500,0.5
1.0,1.3343150615692139,0.0,1,1,1,0.5
0.0,1.960308313369751,0.0,1,1,2,0.5
1.0,2.35331392288208,1.0,1,1,3,0.5
1.0,1.889309287071228,1.0,1,1,4,0.5
1.0,1.5793132781982422,1.0,1,1,5,0.5
1.0,1.4183152914047241,1.0,1,1,6,0.5
1.0,1.4883143901824951,1.0,1,1,7,0.5
1.0,1.5313138961791992,1.0,1,1,8,0.5
1.0,2.4993209838867188,1.0,1,1,9,0.5
1.0,1.9393086433410645,1.0,1,1,10,0.5
1.0,1.392315149307251,1.0,1,1,11,0.5
1.0,1.6253126859664917,1.0,1,1,12,0.5
1.0,1.5863131284713745,0.0,1,1,13,0.5
1.0,2.810335397720337,1.0,1,1,14,0.5
1.0,1.4583147764205933,1.0,1,1,15,0.5
0.0,1.6223126649856567,0.0,1,1,16,0.5
1.0,1.5583134889602661,1.0,1,1,17,0.5
1.0,1.776310682296753,0.0,1,1,18,0.5
0.0,2.823336124420166,1.0,1,1,19,0.5
0.0,1.7483110427856445,1.0,1,1,20,0.5
0.0,1.7023117542266846,0.0,1,1,21,0.5
1.0,2.296311378479004,1.0,1,1,22,0.5
1.0,3.539325714111328,1.0,1,1,23,0.5
1.0,4.13428258895874,1.0,1,1,24,0.5
1.0,1.452314853668213,1.0,1,1,25,0.5
1.0,1.397315263748169,1.0,1,1,26,0.5
1.0,1.6383124589920044,0.0,1,1,27,0.5
0.0,2.1663057804107666,1.0,1,1,28,0.5
0.0,2.884338855743408,0.0,1,1,29,0.5
1.0,2.85233736038208,1.0,1,1,30,0.5
1.0,2.381315231323242,1.0,1,1,31,0.5
1.0,1.822310209274292,1.0,1,1,32,0.5
1.0,2.150305986404419,0.0,1,1,33,0.5
1.0,3.5053281784057617,0.0,1,1,34,0.5
1.0,1.4753146171569824,0.0,1,1,35,0.5
0.0,1.5823131799697876,0.0,1,1,36,0.5
1.0,1.6673121452331543,0.0,1,1,37,0.5
0.0,1.606312870979309,0.0,1,1,38,0.5
1.0,1.9743082523345947,1.0,1,1,39,0.5
1.0,1.6303125619888306,1.0,1,1,40,0.5
1.0,1.5113141536712646,0.0,1,1,41,0.5
1.0,3.691314697265625,1.0,1,1,42,0.5
1.0,1.8303101062774658,1.0,1,1,43,0.5
1.0,1.4883143901824951,1.0,1,1,44,0.5
1.0,1.6533123254776,1.0,1,1,45,0.5
1.0,1.5303138494491577,1.0,1,1,46,0.5
1.0,2.305311679840088,0.0,1,1,47,0.5
1.0,2.594325304031372,1.0,1,1,48,0.5
1.0,1.451314926147461,0.0,1,1,49,0.5
1.0,2.008307695388794,1.0,1,1,50,0.5
1.0,2.2033071517944336,1.0,1,1,51,0.5
1.0,2.325312614440918,1.0,1,1,52,0.5
1.0,1.7183115482330322,1.0,1,1,53,0.5
1.0,1.7693108320236206,0.0,1,1,54,0.5
1.0,2.9953441619873047,1.0,1,1,55,0.5
1.0,1.447314977645874,1.0,1,1,56,0.5
1.0,1.774310827255249,0.0,1,1,57,0.5
1.0,2.2013068199157715,1.0,1,1,58,0.5
1.0,1.955308437347412,1.0,1,1,59,0.5
1.0,1.3603150844573975,1.0,1,1,60,0.5
1.0,1.6003129482269287,1.0,1,1,61,0.5
1.0,1.3933151960372925,0.0,1,1,62,0.5
0.0,3.6383185386657715,0.0,1,1,63,0.5
1.0,1.912308931350708,0.0,1,1,64,0.5
0.0,2.612326145172119,0.0,1,1,65,0.5
1.0,2.588325023651123,1.0,1,1,66,0.5
1.0,1.3103150129318237,1.0,1,1,67,0.5
1.0,1.3963152170181274,1.0,1,1,68,0.5
1.0,1.591313123703003,1.0,1,1,69,0.5
1.0,1.4633147716522217,1.0,1,1,70,0.5
1.0,1.4043152332305908,1.0,1,1,71,0.5
1.0,1.588313102722168,1.0,1,1,72,0.5
1.0,2.062307119369507,1.0,1,1,73,0.5
1.0,1.7333112955093384,1.0,1,1,74,0.5
1.0,1.469314694404602,0.0,1,1,75,0.5
1.0,4.383264541625977,1.0,1,1,76,0.5
1.0,1.2753149271011353,0.0,1,1,77,0.5
1.0,1.7123115062713623,0.0,1,1,78,0.5
0.0,1.4583147764205933,0.0,1,1,79,0.5
0.0,2.0253076553344727,0.0,1,1,80,0.5
1.0,1.9473085403442383,1.0,1,1,81,0.5
1.0,1.5683133602142334,1.0,1,1,82,0.5
1.0,1.352315068244934,1.0,1,1,83,0.5
1.0,1.3493151664733887,1.0,1,1,84,0.5
1.0,1.613312840461731,1.0,1,1,85,0.5
1.0,2.063307046890259,1.0,1,1,86,0.5
1.0,1.7423112392425537,1.0,1,1,87,0.5
1.0,1.5483136177062988,1.0,1,1,88,0.5
1.0,2.2503092288970947,1.0,1,1,89,0.5
1.0,1.7373112440109253,0.0,1,1,90,0.5
1.0,1.2833149433135986,1.0,1,1,91,0.5
1.0,1.5203139781951904,1.0,1,1,92,0.5
1.0,1.5273139476776123,1.0,1,1,93,0.5
1.0,2.616326332092285,1.0,1,1,94,0.5
1.0,1.5553135871887207,1.0,1,1,95,0.5
1.0,1.3223150968551636,1.0,1,1,96,0.5
1.0,1.6943118572235107,1.0,1,1,97,0.5
1.0,2.4053163528442383,1.0,1,1,98,0.5
1.0,1.8043103218078613,1.0,1,1,99,0.5
1.0,2.255309581756592,0.0,1,1,100,0.5
1.0,2.645327568054199,0.0,1,1,101,0.5
1.0,3.629319190979004,1.0,1,1,102,0.5
1.0,2.4273176193237305,1.0,1,1,103,0.5
1.0,1.3503150939941406,1.0,1,1,104,0.5
1.0,2.154305934906006,1.0,1,1,105,0.5
1.0,1.9613083600997925,1.0,1,1,106,0.5
1.0,1.5383137464523315,1.0,1,1,107,0.5
1.0,1.324315071105957,1.0,1,1,108,0.5
1.0,1.5933130979537964,1.0,1,1,109,0.5
1.0,1.6203126907348633,1.0,1,1,110,0.5
1.0,1.5823131799697876,0.0,1,1,111,0.5
1.0,2.0373072624206543,0.0,1,1,112,0.5
1.0,1.5743132829666138,1.0,1,1,113,0.5
1.0,2.100306510925293,0.0,1,1,114,0.5
1.0,3.5953216552734375,0.0,1,1,115,0.5
0.0,1.8333100080490112,0.0,1,1,116,0.5
0.0,2.548323154449463,0.0,1,1,117,0.5
1.0,3.221348762512207,0.0,1,1,118,0.5
0.0,1.4593148231506348,0.0,1,1,119,0.5
1.0,3.3783373832702637,1.0,1,1,120,0.5
0.0,2.0373072624206543,0.0,1,1,121,0.5
1.0,2.149305820465088,1.0,1,1,122,0.5
1.0,1.2673149108886719,1.0,1,1,123,0.5
1.0,1.7543110847473145,0.0,1,1,124,0.5
1.0,3.287343978881836,1.0,1,1,125,0.5
1.0,2.2583096027374268,0.0,1,1,126,0.5
1.0,2.593325138092041,1.0,1,1,127,0.5
1.0,1.7163114547729492,0.0,1,1,128,0.5
1.0,2.5183217525482178,1.0,1,1,129,0.5
1.0,1.9973078966140747,0.0,1,1,130,0.5
1.0,1.5793132781982422,1.0,1,1,131,0.5
1.0,1.5283138751983643,1.0,1,1,132,0.5
1.0,1.4103152751922607,1.0,1,1,133,0.5
1.0,1.444314956665039,1.0,1,1,134,0.5
1.0,1.4053151607513428,0.0,1,1,135,0.5
0.0,1.845309853553772,0.0,1,1,136,0.5
1.0,2.268310070037842,1.0,1,1,137,0.5
1.0,1.4833145141601562,1.0,1,1,138,0.5
1.0,1.5703133344650269,1.0,1,1,139,0.5
1.0,1.9763081073760986,1.0,1,1,140,0.5
1.0,1.4883143901824951,1.0,1,1,141,0.5
1.0,1.3413150310516357,0.0,1,1,142,0.5
1.0,1.684311866760254,1.0,1,1,143,0.5
1.0,1.6263126134872437,0.0,1,1,144,0.5
1.0,3.3983359336853027,0.0,1,1,145,0.5
0.0,3.8273048400878906,0.0,1,1,146,0.5
0.0,1.7733107805252075,0.0,1,1,147,0.5
1.0,2.7133307456970215,1.0,1,1,148,0.5
1.0,2.061306953430176,1.0,1,1,149,0.5
1.0,1.49131441116333,0.0,1,1,150,0.5
1.0,2.2503092288970947,0.0,1,1,151,0.5
1.0,1.4793145656585693,1.0,1,1,152,0.5
1.0,1.6513123512268066,0.0,1,1,153,0.5
1.0,2.564323902130127,0.0,1,1,154,0.5
1.0,1.4613147974014282,1.0,1,1,155,0.5
1.0,1.425315260887146,1.0,1,1,156,0.5
1.0,1.4793145656585693,1.0,1,1,157,0.5
1.0,1.3803151845932007,0.0,1,1,158,0.5
1.0,2.4273176193237305,1.0,1,1,159,0.5
1.0,1.6693121194839478,1.0,1,1,160,0.5
1.0,1.9573084115982056,0.0,1,1,161,0.5
1.0,2.0783069133758545,1.0,1,1,162,0.5
1.0,1.8153102397918701,1.0,1,1,163,0.5
1.0,1.5513136386871338,0.0,1,1,164,0.5
1.0,3.395336151123047,1.0,1,1,165,0.5
1.0,1.5543135404586792,1.0,1,1,166,0.5
1.0,1.7993104457855225,1.0,1,1,167,0.5
1.0,1.5083141326904297,1.0,1,1,168,0.5
1.0,1.3963152170181274,1.0,1,1,169,0.5
1.0,1.4983142614364624,1.0,1,1,170,0.5
1.0,1.3503150939941406,1.0,1,1,171,0.5
1.0,1.8003103733062744,1.0,1,1,172,0.5
1.0,1.7343113422393799,1.0,1,1,173,0.5
1.0,1.5553135871887207,1.0,1,1,174,0.5
1.0,1.6293126344680786,1.0,1,1,175,0.5
1.0,1.354315161705017,0.0,1,1,176,0.5
1.0,2.833336353302002,1.0,1,1,177,0.5
1.0,1.678312063217163,1.0,1,1,178,0.5
1.0,2.874338388442993,1.0,1,1,179,0.5
1.0,1.7363111972808838,0.0,1,1,180,0.5
1.0,1.2723149061203003,1.0,1,1,181,0.5
1.0,1.544313669204712,0.0,1,1,182,0.5
0.0,2.2013068199157715,1.0,1,1,183,0.5
0.0,1.8123102188110352,0.0,1,1,184,0.5
1.0,1.7223114967346191,1.0,1,1,185,0.5
1.0,1.7023117542266846,1.0,1,1,186,0.5
1.0,1.820310115814209,1.0,1,1,187,0.5
1.0,1.723311424255371,0.0,1,1,188,0.5
0.0,3.2333478927612305,1.0,1,1,189,0.5
1.0,2.346313714981079,0.0,1,1,190,0.5
0.0,1.6933118104934692,0.0,1,1,191,0.5
0.0,2.9693427085876465,1.0,1,1,192,0.5
0.0,2.0823068618774414,1.0,1,1,193,0.5
0.0,1.7543110847473145,0.0,1,1,194,0.5
0.0,1.330315113067627,0.0,1,1,195,0.5
0.0,5.51218318939209,1.0,1,1,196,0.5
0.0,1.6693121194839478,1.0,1,1,197,0.5
0.0,1.6333125829696655,0.0,1,1,198,0.5
0.0,2.4773197174072266,0.0,1,1,199,0.5
1.0,3.032345771789551,1.0,1,1,200,0.5
1.0,1.7363111972808838,1.0,1,1,201,0.5
1.0,1.2743149995803833,0.0,1,1,202,0.5
1.0,1.9893079996109009,1.0,1,1,203,0.5
1.0,1.5903130769729614,1.0,1,1,204,0.5
1.0,1.5543135404586792,1.0,1,1,205,0.5
1.0,1.6953117847442627,1.0,1,1,206,0.5
1.0,1.4063152074813843,0.0,1,1,207,0.5
1.0,1.9323086738586426,0.0,1,1,208,0.5
1.0,2.7483325004577637,0.0,1,1,209,0.5
0.0,2.28031063079834,0.0,1,1,210,0.5
1.0,4.230275630950928,1.0,1,1,211,0.5
1.0,1.3443150520324707,1.0,1,1,212,0.5
1.0,1.3393150568008423,1.0,1,1,213,0.5
1.0,1.6513123512268066,1.0,1,1,214,0.5
1.0,2.4273176193237305,1.0,1,1,215,0.5
1.0,1.4843144416809082,0.0,1,1,216,0.5
1.0,1.820310115814209,1.0,1,1,217,0.5
1.0,1.8573096990585327,1.0,1,1,218,0.5
1.0,2.9363412857055664,0.0,1,1,219,0.5
1.0,1.6123127937316895,1.0,1,1,220,0.5
1.0,1.915308952331543,0.0,1,1,221,0.5
1.0,1.355315089225769,0.0,1,1,222,0.5
1.0,1.4453150033950806,1.0,1,1,223,0.5
1.0,1.5993130207061768,1.0,1,1,224,0.5
1.0,1.4393150806427002,1.0,1,1,225,0.5
1.0,1.636312484741211,1.0,1,1,226,0.5
1.0,1.584313154220581,1.0,1,1,227,0.5
1.0,1.5923130512237549,0.0,1,1,228,0.5
1.0,2.0223076343536377,0.0,1,1,229,0.5
1.0,3.4083352088928223,1.0,1,1,230,0.5
1.0,1.4863144159317017,1.0,1,1,231,0.5
1.0,1.4633147716522217,1.0,1,1,232,0.5
1.0,1.753311038017273,0.0,1,1,233,0.5
1.0,3.180351734161377,0.0,1,1,234,0.5
1.0,3.393336296081543,0.0,1,1,235,0.5
1.0,1.8003103733062744,1.0,1,1,236,0.5
1.0,1.5683133602142334,1.0,1,1,237,0.5
1.0,1.635312557220459,0.0,1,1,238,0.5
1.0,3.9402966499328613,0.0,1,1,239,0.5
0.0,2.884338855743408,0.0,1,1,240,0.5
1.0,2.854337453842163,1.0,1,1,241,0.5
1.0,2.053307056427002,1.0,1,1,242,0.5
1.0,1.4863144159317017,1.0,1,1,243,0.5
1.0,1.9613083600997925,1.0,1,1,244,0.5
1.0,1.8923091888427734,1.0,1,1,245,0.5
1.0,1.7363111972808838,1.0,1,1,246,0.5
1.0,1.6243126392364502,0.0,1,1,247,0.5
1.0,2.9213404655456543,0.0,1,1,248,0.5
1.0,2.9443416595458984,1.0,1,1,249,0.5
1.0,1.4113152027130127,1.0,1,1,250,0.5
1.0,1.7553110122680664,1.0,1,1,251,0.5
1.0,2.2093071937561035,0.0,1,1,252,0.5
1.0,1.67631196975708,1.0,1,1,253,0.5
1.0,1.4123152494430542,0.0,1,1,254,0.5
1.0,2.791334629058838,1.0,1,1,255,0.5
1.0,1.9723081588745117,0.0,1,1,256,0.5
1.0,3.332340717315674,1.0,1,1,257,0.5
1.0,2.820335865020752,0.0,1,1,258,0.5
1.0,3.2313480377197266,0.0,1,1,259,0.5
1.0,3.196350574493408,1.0,1,1,260,0.5
1.0,2.837336540222168,0.0,1,1,261,0.5
1.0,1.4783145189285278,0.0,1,1,262,0.5
0.0,2.279310703277588,1.0,1,1,263,0.5
0.0,2.105306625366211,0.0,1,1,264,0.5
0.0,4.86622953414917,0.0,1,1,265,0.5
1.0,3.4853296279907227,1.0,1,1,266,0.5
1.0,1.3323150873184204,0.0,1,1,267,0.5
1.0,2.878338575363159,1.0,1,1,268,0.5
1.0,1.6513123512268066,1.0,1,1,269,0.5
1.0,1.2983150482177734,0.0,1,1,270,0.5
1.0,1.5893131494522095,1.0,1,1,271,0.5
1.0,1.6513123512268066,0.0,1,1,272,0.5
1.0,1.8133102655410767,1.0,1,1,273,0.5
1.0,1.5093141794204712,1.0,1,1,274,0.5
1.0,1.7483110427856445,1.0,1,1,275,0.5
1.0,1.7513110637664795,1.0,1,1,276,0.5
1.0,2.0353074073791504,1.0,1,1,277,0.5
1.0,1.5033142566680908,0.0,1,1,278,0.5
1.0,2.4553189277648926,1.0,1,1,279,0.5
1.0,1.4243152141571045,1.0,1,1,280,0.5
1.0,2.6693286895751953,0.0,1,1,281,0.5
1.0,1.7563109397888184,1.0,1,1,282,0.5
1.0,1.7473111152648926,1.0,1,1,283,0.5
1.0,1.7103116512298584,1.0,1,1,284,0.5
1.0,1.3323150873184204,1.0,1,1,285,0.5
1.0,1.6043128967285156,1.0,1,1,286,0.5
1.0,1.5473136901855469,1.0,1,1,287,0.5
1.0,1.7593109607696533,1.0,1,1,288,0.5
1.0,2.4483184814453125,1.0,1,1,289,0.5
1.0,1.3803151845932007,0.0,1,1,290,0.5
1.0,1.8433098793029785,1.0,1,1,291,0.5
1.0,1.6713120937347412,0.0,1,1,292,0.5
1.0,2.7143309116363525,1.0,1,1,293,0.5
1.0,1.8573096990585327,1.0,1,1,294,0.5
1.0,1.7543110847473145,1.0,1,1,295,0.5
1.0,1.3793151378631592,1.0,1,1,296,0.5
1.0,1.6653121709823608,0.0,1,1,297,0.5
1.0,1.772310733795166,1.0,1,1,298,0.5
1.0,2.0393073558807373,0.0,1,1,299,0.5
1.0,1.9353086948394775,1.0,1,1,300,0.5
1.0,1.3143150806427002,1.0,1,1,301,0.5
1.0,1.776310682296753,0.0,1,1,302,0.5
1.0,2.9353413581848145,1.0,1,1,303,0.5
1.0,1.5233139991760254,1.0,1,1,304,0.5
1.0,1.7023117542266846,1.0,1,1,305,0.5
1.0,1.328315019607544,0.0,1,1,306,0.5
1.0,4.286271572113037,1.0,1,1,307,0.5
1.0,1.6113128662109375,0.0,1,1,308,0.5
1.0,1.7443110942840576,0.0,1,1,309,0.5
1.0,1.5093141794204712,1.0,1,1,310,0.5
1.0,2.049307346343994,1.0,1,1,311,0.5
1.0,2.148305892944336,0.0,1,1,312,0.5
0.0,4.1922783851623535,0.0,1,1,313,0.5
1.0,3.019345283508301,0.0,1,1,314,0.5
1.0,2.094306707382202,1.0,1,1,315,0.5
1.0,1.7173115015029907,1.0,1,1,316,0.5
1.0,1.3473150730133057,0.0,1,1,317,0.5
1.0,3.9842934608459473,0.0,1,1,318,0.5
1.0,3.7043137550354004,0.0,1,1,319,0.5
0.0,2.6853294372558594,0.0,1,1,320,0.5
1.0,3.455331802368164,1.0,1,1,321,0.5
1.0,3.6543173789978027,0.0,1,1,322,0.5
0.0,1.8773094415664673,0.0,1,1,323,0.5
1.0,1.609312891960144,1.0,1,1,324,0.5
1.0,1.6953117847442627,0.0,1,1,325,0.5
1.0,3.3583388328552246,0.0,1,1,326,0.5
1.0,2.0193076133728027,1.0,1,1,327,0.5
1.0,1.3963152170181274,1.0,1,1,328,0.5
1.0,1.6383124589920044,1.0,1,1,329,0.5
1.0,1.3603150844573975,1.0,1,1,330,0.5
1.0,1.9433085918426514,1.0,1,1,331,0.5
1.0,1.8473098278045654,1.0,1,1,332,0.5
1.0,1.5753133296966553,1.0,1,1,333,0.5
1.0,1.801310420036316,1.0,1,1,334,0.5
1.0,1.4283151626586914,1.0,1,1,335,0.5
1.0,1.8143103122711182,0.0,1,1,336,0.5
0.0,2.2123074531555176,0.0,1,1,337,0.5
0.0,2.302311658859253,0.0,1,1,338,0.5
1.0,2.1793060302734375,0.0,1,1,339,0.5
0.0,2.9823434352874756,0.0,1,1,340,0.5
1.0,1.6493123769760132,1.0,1,1,341,0.5
1.0,1.5563135147094727,0.0,1,1,342,0.5
0.0,2.3203125,0.0,1,1,343,0.5
1.0,1.956308364868164,0.0,1,1,344,0.5
0.0,1.4653147459030151,1.0,1,1,345,0.5
0.0,3.0073447227478027,0.0,1,1,346,0.5
0.0,1.8463099002838135,0.0,1,1,347,0.5
0.0,3.3653383255004883,0.0,1,1,348,0.5
0.0,1.7383112907409668,1.0,1,1,349,0.5
0.0,1.5503135919570923,0.0,1,1,350,0.5
0.0,2.830336332321167,1.0,1,1,351,0.5
0.0,1.636312484741211,0.0,1,1,352,0.5
0.0,2.8193359375,0.0,1,1,353,0.5
1.0,2.7193312644958496,1.0,1,1,354,0.5
1.0,1.395315170288086,1.0,1,1,355,0.5
1.0,1.4093152284622192,1.0,1,1,356,0.5
1.0,1.4653147459030151,0.0,1,1,357,0.5
1.0,3.121349811553955,1.0,1,1,358,0.5
1.0,1.7333112955093384,0.0,1,1,359,0.5
1.0,2.2223079204559326,0.0,1,1,360,0.5
1.0,1.5953130722045898,1.0,1,1,361,0.5
1.0,2.0693068504333496,0.0,1,1,362,0.5
1.0,3.437333106994629,1.0,1,1,363,0.5
1.0,2.4653191566467285,1.0,1,1,364,0.5
1.0,1.5983129739761353,1.0,1,1,365,0.5
1.0,2.4403181076049805,1.0,1,1,366,0.5
1.0,1.7363111972808838,1.0,1,1,367,0.5
1.0,1.7613109350204468,0.0,1,1,368,0.5
1.0,2.4953207969665527,1.0,1,1,369,0.5
1.0,1.4113152027130127,1.0,1,1,370,0.5
1.0,1.539313793182373,1.0,1,1,371,0.5
1.0,1.6773120164871216,0.0,1,1,372,0.5
0.0,5.24620246887207,1.0,1,1,373,0.5
0.0,1.9203088283538818,0.0,1,1,374,0.5
1.0,2.289310932159424,1.0,1,1,375,0.5
1.0,1.391315221786499,1.0,1,1,376,0.5
1.0,1.8833093643188477,1.0,1,1,377,0.5
1.0,1.3803151845932007,1.0,1,1,378,0.5
1.0,1.9273087978363037,0.0,1,1,379,0.5
0.0,2.1233062744140625,1.0,1,1,380,0.5
0.0,2.2733101844787598,1.0,1,1,381,0.5
0.0,1.959308385848999,0.0,1,1,382,0.5
0.0,3.183351516723633,0.0,1,1,383,0.5
1.0,4.802234172821045,1.0,1,1,384,0.5
1.0,1.4933143854141235,0.0,1,1,385,0.5
1.0,2.092306613922119,0.0,1,1,386,0.5
1.0,3.7253122329711914,0.0,1,1,387,0.5
1.0,2.0683069229125977,1.0,1,1,388,0.5
1.0,2.11030650138855,1.0,1,1,389,0.5
1.0,1.6173127889633179,1.0,1,1,390,0.5
1.0,2.2543094158172607,1.0,1,1,391,0.5
1.0,1.4893144369125366,1.0,1,1,392,0.5
1.0,1.4203152656555176,0.0,1,1,393,0.5
1.0,1.6403124332427979,0.0,1,1,394,0.5
0.0,3.034345865249634,0.0,1,1,395,0.5
1.0,2.837336540222168,1.0,1,1,396,0.5
1.0,1.4093152284622192,1.0,1,1,397,0.5
1.0,1.3673151731491089,1.0,1,1,398,0.5
1.0,1.7143115997314453,0.0,1,1,399,0.5
1.0,2.0393073558807373,0.0,1,1,400,0.5
1.0,1.6753120422363281,1.0,1,1,401,0.5
1.0,2.6933298110961914,0.0,1,1,402,0.5
1.0,4.3182692527771,1.0,1,1,403,0.5
1.0,1.5273139476776123,1.0,1,1,404,0.5
1.0,1.584313154220581,1.0,1,1,405,0.5
1.0,1.775310754776001,1.0,1,1,406,0.5
1.0,1.7523109912872314,0.0,1,1,407,0.5
1.0,3.199350357055664,1.0,1,1,408,0.5
1.0,1.4943143129348755,1.0,1,1,409,0.5
1.0,1.4883143901824951,1.0,1,1,410,0.5
1.0,2.0423073768615723,1.0,1,1,411,0.5
1.0,1.565313458442688,1.0,1,1,412,0.5
1.0,2.003307819366455,1.0,1,1,413,0.5
1.0,1.6233127117156982,1.0,1,1,414,0.5
1.0,1.7593109607696533,0.0,1,1,415,0.5
1.0,1.871309518814087,1.0,1,1,416,0.5
1.0,2.1713056564331055,1.0,1,1,417,0.5
1.0,2.1273062229156494,1.0,1,1,418,0.5
1.0,1.657312273979187,0.0,1,1,419,0.5
1.0,1.6873118877410889,1.0,1,1,420,0.5
1.0,1.3963152170181274,1.0,1,1,421,0.5
1.0,1.5253139734268188,0.0,1,1,422,0.5
1.0,1.7853106260299683,1.0,1,1,423,0.5
1.0,1.4363150596618652,1.0,1,1,424,0.5
1.0,1.2953150272369385,1.0,1,1,425,0.5
1.0,1.4333151578903198,1.0,1,1,426,0.5
1.0,1.6153128147125244,0.0,1,1,427,0.5
1.0,1.7163114547729492,1.0,1,1,428,0.5
1.0,1.6433124542236328,0.0,1,1,429,0.5
0.0,1.5593135356903076,0.0,1,1,430,0.5
1.0,2.3783152103424072,0.0,1,1,431,0.5
1.0,1.8353099822998047,1.0,1,1,432,0.5
1.0,1.6993117332458496,1.0,1,1,433,0.5
1.0,1.8333100080490112,1.0,1,1,434,0.5
1.0,1.8953092098236084,1.0,1,1,435,0.5
1.0,1.4673147201538086,1.0,1,1,436,0.5
1.0,1.6713120937347412,1.0,1,1,437,0.5
1.0,2.00630784034729,0.0,1,1,438,0.5
1.0,1.8533097505569458,1.0,1,1,439,0.5
1.0,1.8403098583221436,0.0,1,1,440,0.5
0.0,2.301311492919922,0.0,1,1,441,0.5
1.0,2.046307325363159,1.0,1,1,442,0.5
1.0,1.731311321258545,1.0,1,1,443,0.5
1.0,2.059307098388672,1.0,1,1,444,0.5
1.0,1.422315239906311,1.0,1,1,445,0.5
1.0,1.724311351776123,1.0,1,1,446,0.5
1.0,1.591313123703003,1.0,1,1,447,0.5
1.0,2.136306047439575,1.0,1,1,448,0.5
1.0,1.5553135871887207,1.0,1,1,449,0.5
1.0,2.0303075313568115,1.0,1,1,450,0.5
1.0,1.6683120727539062,1.0,1,1,451,0.5
1.0,1.536313772201538,0.0,1,1,452,0.5
1.0,1.7523109912872314,0.0,1,1,453,0.5
1.0,1.6123127937316895,0.0,1,1,454,0.5
0.0,1.8903093338012695,1.0,1,1,455,0.5
0.0,1.8373099565505981,1.0,1,1,456,0.5
0.0,2.0733070373535156,0.0,1,1,457,0.5
0.0,3.07834792137146,1.0,1,1,458,0.5
0.0,2.2123074531555176,1.0,1,1,459,0.5
0.0,1.391315221786499,0.0,1,1,460,0.5
0.0,3.1693520545959473,0.0,1,1,461,0.5
1.0,3.031345844268799,0.0,1,1,462,0.5
1.0,1.5593135356903076,1.0,1,1,463,0.5
1.0,2.816335678100586,0.0,1,1,464,0.5
1.0,1.2813149690628052,0.0,1,1,465,0.5
1.0,1.4883143901824951,0.0,1,1,466,0.5
0.0,1.9713082313537598,1.0,1,1,467,0.5
0.0,1.9693082571029663,0.0,1,1,468,0.5
0.0,3.3863368034362793,0.0,1,1,469,0.5
0.0,2.585324764251709,1.0,1,1,470,0.5
0.0,1.5633134841918945,0.0,1,1,471,0.5
1.0,1.7823107242584229,1.0,1,1,472,0.5
1.0,1.361315131187439,1.0,1,1,473,0.5
1.0,1.4603147506713867,0.0,1,1,474,0.5
0.0,2.7743337154388428,1.0,1,1,475,0.5
1.0,1.709311604499817,0.0,1,1,476,0.5
0.0,1.9763081073760986,1.0,1,1,477,0.5
0.0,1.7843105792999268,0.0,1,1,478,0.5
0.0,1.4683146476745605,0.0,1,1,479,0.5
0.0,1.7993104457855225,1.0,1,1,480,0.5
0.0,1.591313123703003,1.0,1,1,481,0.5
0.0,2.36031436920166,1.0,1,1,482,0.5
0.0,2.34031343460083,0.0,1,1,483,0.5
0.0,2.4453182220458984,0.0,1,1,484,0.5
0.0,4.228275775909424,0.0,1,1,485,0.5
1.0,1.5973130464553833,1.0,1,1,486,0.5
1.0,1.701311707496643,1.0,1,1,487,0.5
1.0,1.4823144674301147,0.0,1,1,488,0.5
0.0,1.889309287071228,1.0,1,1,489,0.5
0.0,2.6513280868530273,0.0,1,1,490,0.5
1.0,2.2443089485168457,1.0,1,1,491,0.5
1.0,1.474314570426941,1.0,1,1,492,0.5
1.0,1.5823131799697876,0.0,1,1,493,0.5
0.0,2.4183170795440674,1.0,1,1,494,0.5
0.0,1.7623109817504883,1.0,1,1,495,0.5
0.0,1.8103103637695312,0.0,1,1,496,0.5
1.0,1.730311393737793,1.0,1,1,497,0.5
1.0,1.7503111362457275,0.0,1,1,498,0.5
1.0,1.9223089218139648,1.0,1,1,499,0.5
1.0,2.2303082942962646,1.0,1,1,500,0.5
1.0,1.5083141326904297,1.0,1,2,1,0.5
1.0,1.6983118057250977,1.0,1,2,2,0.5
1.0,1.5943130254745483,0.0,1,2,3,0.5
0.0,1.5273139476776123,1.0,1,2,4,0.5
0.0,2.9883437156677246,0.0,1,2,5,0.5
1.0,3.1843514442443848,1.0,1,2,6,0.5
1.0,1.419315218925476,1.0,1,2,7,0.5
1.0,1.5783132314682007,0.0,1,2,8,0.5
0.0,2.5173215866088867,1.0,1,2,9,0.5
0.0,2.577324390411377,0.0,1,2,10,0.5
0.0,2.542322874069214,1.0,1,2,11,0.5
1.0,1.5273139476776123,0.0,1,2,12,0.5
0.0,1.7043116092681885,0.0,1,2,13,0.5
0.0,4.105284690856934,0.0,1,2,14,0.5
0.0,3.820305347442627,1.0,1,2,15,0.5
0.0,2.284310817718506,0.0,1,2,16,0.5
0.0,1.963308334350586,0.0,1,2,17,0.5
1.0,1.9343087673187256,0.0,1,2,18,0.5
1.0,3.33034086227417,0.0,1,2,19,0.5
1.0,2.877338409423828,1.0,1,2,20,0.5
1.0,2.1603057384490967,1.0,1,2,21,0.5
1.0,1.3933151960372925,0.0,1,2,22,0.5
1.0,3.267345428466797,0.0,1,2,23,0.5
1.0,2.2363085746765137,0.0,1,2,24,0.5
1.0,2.7693333625793457,0.0,1,2,25,0.5
0.0,2.6393275260925293,0.0,1,2,26,0.5
1.0,1.4373151063919067,0.0,1,2,27,0.5
1.0,1.6723120212554932,1.0,1,2,28,0.5
1.0,1.3423150777816772,1.0,1,2,29,0.5
1.0,1.3793151378631592,1.0,1,2,30,0.5
1.0,1.333315134048462,0.0,1,2,31,0.5
1.0,1.6963117122650146,0.0,1,2,32,0.5
0.0,1.6703120470046997,0.0,1,2,33,0.5
1.0,3.6423182487487793,1.0,1,2,34,0.5
1.0,1.3343150615692139,0.0,1,2,35,0.5
0.0,3.247346878051758,1.0,1,2,36,0.5
0.0,1.9053090810775757,0.0,1,2,37,0.5
0.0,2.7033305168151855,1.0,1,2,38,0.5
0.0,1.6173127889633179,1.0,1,2,39,0.5
0.0,1.684311866760254,1.0,1,2,40,0.5
0.0,3.8723015785217285,0.0,1,2,41,0.5
0.0,2.0813069343566895,1.0,1,2,42,0.5
0.0,2.2303082942962646,1.0,1,2,43,0.5
0.0,2.1943066120147705,0.0,1,2,44,0.5
1.0,2.4753198623657227,1.0,1,2,45,0.5
1.0,1.5643134117126465,0.0,1,2,46,0.5
1.0,2.4323177337646484,1.0,1,2,47,0.5
1.0,1.6773120164871216,1.0,1,2,48,0.5
1.0,1.8493098020553589,1.0,1,2,49,0.5
1.0,1.8073103427886963,1.0,1,2,50,0.5
1.0,1.49131441116333,1.0,1,2,51,0.5
1.0,1.540313720703125,1.0,1,2,52,0.5
1.0,1.5353138446807861,1.0,1,2,53,0.5
1.0,1.6383124589920044,1.0,1,2,54,0.5
1.0,1.4603147506713867,0.0,1,2,55,0.5
0.0,1.9713082313537598,1.0,1,2,56,0.5
0.0,3.178351879119873,1.0,1,2,57,0.5
0.0,1.657312273979187,0.0,1,2,58,0.5
0.0,3.4863295555114746,1.0,1,2,59,0.5
0.0,2.4133167266845703,0.0,1,2,60,0.5
1.0,1.5643134117126465,0.0,1,2,61,0.5
0.0,3.5773229598999023,0.0,1,2,62,0.5
0.0,2.046307325363159,0.0,1,2,63,0.5
1.0,2.1773056983947754,1.0,1,2,64,0.5
1.0,1.8293100595474243,1.0,1,2,65,0.5
1.0,1.753311038017273,1.0,1,2,66,0.5
1.0,2.099306583404541,1.0,1,2,67,0.5
1.0,1.7523109912872314,1.0,1,2,68,0.5
1.0,1.9393086433410645,0.0,1,2,69,0.5
1.0,1.5793132781982422,1.0,1,2,70,0.5
1.0,2.2013068199157715,1.0,1,2,71,0.5
1.0,1.6913118362426758,1.0,1,2,72,0.5
1.0,1.318315029144287,0.0,1,2,73,0.5
1.0,2.533322334289551,1.0,1,2,74,0.5
1.0,1.5473136901855469,0.0,1,2,75,0.5
1.0,2.331313133239746,0.0,1,2,76,0.5
0.0,1.8003103733062744,1.0,1,2,77,0.5
0.0,1.4163151979446411,0.0,1,2,78,0.5
1.0,2.2163076400756836,0.0,1,2,79,0.5
0.0,2.604325771331787,0.0,1,2,80,0.5
0.0,2.303311824798584,1.0,1,2,81,0.5
0.0,1.7223114967346191,0.0,1,2,82,0.5
0.0,2.628326892852783,1.0,1,2,83,0.5
0.0,1.5793132781982422,0.0,1,2,84,0.5
1.0,4.141282081604004,1.0,1,2,85,0.5
1.0,1.7373112440109253,1.0,1,2,86,0.5
1.0,1.686311960220337,0.0,1,2,87,0.5
0.0,2.1623058319091797,0.0,1,2,88,0.5
1.0,1.7503111362457275,1.0,1,2,89,0.5
1.0,1.4383150339126587,0.0,1,2,90,0.5
0.0,4.509255409240723,1.0,1,2,91,0.5
0.0,2.4183170795440674,1.0,1,2,92,0.5
0.0,2.4833202362060547,1.0,1,2,93,0.5
0.0,1.6653121709823608,1.0,1,2,94,0.5
0.0,1.841309905052185,0.0,1,2,95,0.5
1.0,3.772308826446533,1.0,1,2,96,0.5
1.0,1.8513097763061523,1.0,1,2,97,0.5
1.0,1.8023104667663574,0.0,1,2,98,0.5
1.0,2.882338762283325,1.0,1,2,99,0.5
1.0,1.3823151588439941,0.0,1,2,100,0.5
0.0,2.2213077545166016,0.0,1,2,101,0.5
