response,rt,feedback,subj_idx,split_by,trial,q_init
0.0,2.729578971862793,0.0,0,0,1,0.5
1.0,3.090592861175537,1.0,0,0,2,0.5
1.0,3.8926169872283936,1.0,0,0,3,0.5
1.0,2.4295830726623535,1.0,0,0,4,0.5
1.0,2.5665812492370605,1.0,0,0,5,0.5
1.0,3.1895976066589355,1.0,0,0,6,0.5
1.0,2.993588447570801,1.0,0,0,7,0.5
1.0,3.4156081676483154,1.0,0,0,8,0.5
1.0,2.4635825157165527,0.0,0,0,9,0.5
1.0,6.918397903442383,1.0,0,0,10,0.5
1.0,4.808550834655762,1.0,0,0,11,0.5
1.0,2.8485817909240723,1.0,0,0,12,0.5
1.0,2.5715811252593994,1.0,0,0,13,0.5
1.0,2.350584030151367,1.0,0,0,14,0.5
1.0,3.57161545753479,1.0,0,0,15,0.5
1.0,3.070591926574707,1.0,0,0,16,0.5
1.0,3.097593307495117,0.0,0,0,17,0.5
0.0,6.802406311035156,0.0,0,0,18,0.5
1.0,3.8746182918548584,1.0,0,0,19,0.5
1.0,4.824549674987793,0.0,0,0,20,0.5
1.0,3.7096219062805176,1.0,0,0,21,0.5
1.0,2.8775830268859863,1.0,0,0,22,0.5
1.0,3.1295948028564453,1.0,0,0,23,0.5
1.0,2.7015795707702637,1.0,0,0,24,0.5
1.0,2.6715798377990723,1.0,0,0,25,0.5
1.0,2.5185818672180176,1.0,0,0,26,0.5
1.0,2.449582576751709,1.0,0,0,27,0.5
1.0,2.50258207321167,1.0,0,0,28,0.5
1.0,2.547581434249878,1.0,0,0,29,0.5
1.0,2.4685823917388916,1.0,0,0,30,0.5
1.0,3.045590877532959,1.0,0,0,31,0.5
1.0,2.9815878868103027,1.0,0,0,32,0.5
1.0,4.0026092529296875,1.0,0,0,33,0.5
1.0,2.8995840549468994,1.0,0,0,34,0.5
1.0,2.6075806617736816,1.0,0,0,35,0.5
1.0,3.968611478805542,1.0,0,0,36,0.5
1.0,2.9455862045288086,0.0,0,0,37,0.5
0.0,2.8705825805664062,0.0,0,0,38,0.5
1.0,3.32560396194458,1.0,0,0,39,0.5
1.0,2.638580322265625,1.0,0,0,40,0.5
1.0,2.5645811557769775,1.0,0,0,41,0.5
1.0,2.6175804138183594,1.0,0,0,42,0.5
1.0,2.996588706970215,0.0,0,0,43,0.5
1.0,2.8595821857452393,1.0,0,0,44,0.5
1.0,5.0435333251953125,1.0,0,0,45,0.5
1.0,2.7435789108276367,1.0,0,0,46,0.5
1.0,2.785578727722168,1.0,0,0,47,0.5
1.0,2.5545814037323,1.0,0,0,48,0.5
1.0,3.098593235015869,1.0,0,0,49,0.5
1.0,2.597580909729004,1.0,0,0,50,0.5
1.0,2.2995846271514893,1.0,0,0,51,0.5
1.0,3.4236085414886475,1.0,0,0,52,0.5
1.0,2.536581516265869,0.0,0,0,53,0.5
1.0,3.4076077938079834,1.0,0,0,54,0.5
1.0,3.586616039276123,1.0,0,0,55,0.5
1.0,2.5715811252593994,1.0,0,0,56,0.5
1.0,2.6985795497894287,1.0,0,0,57,0.5
1.0,2.36358380317688,1.0,0,0,58,0.5
1.0,3.4486098289489746,1.0,0,0,59,0.5
1.0,3.317603588104248,1.0,0,0,60,0.5
1.0,4.511571884155273,1.0,0,0,61,0.5
1.0,3.056591510772705,1.0,0,0,62,0.5
1.0,3.8126227855682373,1.0,0,0,63,0.5
1.0,2.6595799922943115,1.0,0,0,64,0.5
1.0,3.2335996627807617,0.0,0,0,65,0.5
1.0,3.4276087284088135,1.0,0,0,66,0.5
1.0,2.7545788288116455,1.0,0,0,67,0.5
1.0,2.9715874195098877,1.0,0,0,68,0.5
1.0,2.318584442138672,1.0,0,0,69,0.5
1.0,2.5255818367004395,1.0,0,0,70,0.5
1.0,2.1545865535736084,0.0,0,0,71,0.5
1.0,3.1675965785980225,1.0,0,0,72,0.5
1.0,2.222585678100586,1.0,0,0,73,0.5
1.0,2.1625864505767822,1.0,0,0,74,0.5
1.0,2.8975839614868164,1.0,0,0,75,0.5
1.0,2.778578519821167,1.0,0,0,76,0.5
1.0,3.8456203937530518,1.0,0,0,77,0.5
1.0,3.2065982818603516,1.0,0,0,78,0.5
1.0,2.5755810737609863,1.0,0,0,79,0.5
1.0,3.279601812362671,1.0,0,0,80,0.5
1.0,2.599580764770508,1.0,0,0,81,0.5
1.0,2.5615811347961426,1.0,0,0,82,0.5
1.0,3.3676059246063232,1.0,0,0,83,0.5
1.0,2.6105806827545166,1.0,0,0,84,0.5
1.0,4.49957275390625,1.0,0,0,85,0.5
1.0,3.010589122772217,1.0,0,0,86,0.5
1.0,2.0965871810913086,1.0,0,0,87,0.5
1.0,2.586580991744995,1.0,0,0,88,0.5
1.0,3.324604034423828,1.0,0,0,89,0.5
1.0,3.838620901107788,1.0,0,0,90,0.5
1.0,3.1855974197387695,1.0,0,0,91,0.5
1.0,4.117600440979004,1.0,0,0,92,0.5
1.0,2.7625787258148193,1.0,0,0,93,0.5
1.0,2.5565812587738037,0.0,0,0,94,0.5
0.0,2.9065842628479004,0.0,0,0,95,0.5
0.0,3.907615900039673,0.0,0,0,96,0.5
1.0,4.2975873947143555,1.0,0,0,97,0.5
0.0,2.408583164215088,0.0,0,0,98,0.5
1.0,2.7055792808532715,1.0,0,0,99,0.5
1.0,2.69357967376709,1.0,0,0,100,0.5
1.0,2.361583709716797,0.0,0,0,101,0.5
0.0,2.267585039138794,0.0,0,0,102,0.5
1.0,3.4186081886291504,1.0,0,0,103,0.5
1.0,3.4696106910705566,0.0,0,0,104,0.5
1.0,4.0666046142578125,1.0,0,0,105,0.5
1.0,3.816622495651245,1.0,0,0,106,0.5
1.0,2.9475862979888916,1.0,0,0,107,0.5
1.0,3.626617908477783,1.0,0,0,108,0.5
1.0,2.6155805587768555,1.0,0,0,109,0.5
1.0,2.2795848846435547,1.0,0,0,110,0.5
1.0,3.037590503692627,1.0,0,0,111,0.5
0.0,2.069587469100952,0.0,0,0,112,0.5
1.0,2.3215842247009277,1.0,0,0,113,0.5
1.0,4.28958797454834,0.0,0,0,114,0.5
1.0,2.627580404281616,1.0,0,0,115,0.5
1.0,2.5685811042785645,1.0,0,0,116,0.5
1.0,2.9465861320495605,0.0,0,0,117,0.5
1.0,3.1785969734191895,1.0,0,0,118,0.5
1.0,4.46457576751709,1.0,0,0,119,0.5
1.0,2.360583782196045,1.0,0,0,120,0.5
0.0,2.2935848236083984,0.0,0,0,121,0.5
1.0,2.300584554672241,1.0,0,0,122,0.5
1.0,2.3795835971832275,0.0,0,0,123,0.5
1.0,3.28560209274292,1.0,0,0,124,0.5
1.0,3.370605945587158,0.0,0,0,125,0.5
0.0,7.141381740570068,0.0,0,0,126,0.5
0.0,2.9415860176086426,0.0,0,0,127,0.5
1.0,2.209585666656494,1.0,0,0,128,0.5
1.0,4.20759391784668,1.0,0,0,129,0.5
1.0,2.4275829792022705,1.0,0,0,130,0.5
1.0,3.492611885070801,1.0,0,0,131,0.5
1.0,2.163586378097534,1.0,0,0,132,0.5
1.0,2.3745837211608887,0.0,0,0,133,0.5
1.0,3.7276227474212646,1.0,0,0,134,0.5
1.0,3.3826065063476562,0.0,0,0,135,0.5
1.0,3.4766111373901367,1.0,0,0,136,0.5
1.0,3.2125988006591797,1.0,0,0,137,0.5
1.0,2.4255828857421875,1.0,0,0,138,0.5
1.0,2.797579288482666,1.0,0,0,139,0.5
1.0,2.841581344604492,1.0,0,0,140,0.5
1.0,2.808579921722412,1.0,0,0,141,0.5
1.0,2.830580711364746,1.0,0,0,142,0.5
1.0,2.724579095840454,1.0,0,0,143,0.5
1.0,2.847581624984741,0.0,0,0,144,0.5
0.0,7.064387321472168,0.0,0,0,145,0.5
1.0,2.9205851554870605,1.0,0,0,146,0.5
1.0,4.03360652923584,0.0,0,0,147,0.5
1.0,4.648562431335449,1.0,0,0,148,0.5
1.0,2.794579029083252,0.0,0,0,149,0.5
0.0,4.760554313659668,0.0,0,0,150,0.5
0.0,3.1365952491760254,0.0,0,0,151,0.5
1.0,5.551496505737305,1.0,0,0,152,0.5
1.0,3.3816065788269043,1.0,0,0,153,0.5
1.0,2.226585626602173,1.0,0,0,154,0.5
1.0,2.642580270767212,1.0,0,0,155,0.5
1.0,2.6675798892974854,1.0,0,0,156,0.5
1.0,2.3435840606689453,1.0,0,0,157,0.5
1.0,2.499582052230835,1.0,0,0,158,0.5
1.0,2.3265843391418457,1.0,0,0,159,0.5
1.0,2.1485865116119385,1.0,0,0,160,0.5
1.0,3.4706106185913086,1.0,0,0,161,0.5
1.0,2.451582670211792,1.0,0,0,162,0.5
1.0,3.4096078872680664,1.0,0,0,163,0.5
1.0,3.020589828491211,1.0,0,0,164,0.5
1.0,2.7025794982910156,0.0,0,0,165,0.5
1.0,5.003536224365234,1.0,0,0,166,0.5
1.0,3.1265945434570312,0.0,0,0,167,0.5
0.0,3.118594169616699,0.0,0,0,168,0.5
1.0,3.55161452293396,1.0,0,0,169,0.5
0.0,2.5165817737579346,0.0,0,0,170,0.5
1.0,3.009589195251465,1.0,0,0,171,0.5
1.0,2.449582576751709,0.0,0,0,172,0.5
1.0,4.309586524963379,1.0,0,0,173,0.5
1.0,2.0125880241394043,1.0,0,0,174,0.5
1.0,3.2185988426208496,1.0,0,0,175,0.5
1.0,2.442582845687866,1.0,0,0,176,0.5
1.0,2.540581464767456,1.0,0,0,177,0.5
1.0,3.0995934009552,1.0,0,0,178,0.5
1.0,2.3815836906433105,1.0,0,0,179,0.5
1.0,4.157597541809082,0.0,0,0,180,0.5
1.0,3.3796064853668213,1.0,0,0,181,0.5
1.0,2.31758451461792,1.0,0,0,182,0.5
1.0,3.293602466583252,1.0,0,0,183,0.5
1.0,2.7075793743133545,1.0,0,0,184,0.5
1.0,2.724579095840454,1.0,0,0,185,0.5
1.0,2.257585048675537,1.0,0,0,186,0.5
1.0,2.5735812187194824,1.0,0,0,187,0.5
1.0,2.491582155227661,1.0,0,0,188,0.5
1.0,2.408583164215088,1.0,0,0,189,0.5
1.0,2.6005806922912598,1.0,0,0,190,0.5
1.0,3.843620538711548,1.0,0,0,191,0.5
1.0,3.1325950622558594,0.0,0,0,192,0.5
0.0,2.776578426361084,0.0,0,0,193,0.5
0.0,2.7435789108276367,0.0,0,0,194,0.5
1.0,3.8516199588775635,1.0,0,0,195,0.5
1.0,2.673579692840576,1.0,0,0,196,0.5
1.0,3.32560396194458,1.0,0,0,197,0.5
1.0,2.805579662322998,1.0,0,0,198,0.5
1.0,2.9815878868103027,1.0,0,0,199,0.5
1.0,2.4725823402404785,1.0,0,0,200,0.5
1.0,2.58358097076416,1.0,0,0,201,0.5
1.0,2.123586893081665,1.0,0,0,202,0.5
1.0,2.4605824947357178,1.0,0,0,203,0.5
1.0,2.0605876445770264,1.0,0,0,204,0.5
1.0,2.8965840339660645,1.0,0,0,205,0.5
1.0,2.445582866668701,1.0,0,0,206,0.5
1.0,2.456582546234131,1.0,0,0,207,0.5
1.0,3.6516191959381104,1.0,0,0,208,0.5
1.0,2.585580825805664,1.0,0,0,209,0.5
1.0,2.0915873050689697,1.0,0,0,210,0.5
1.0,2.6185805797576904,1.0,0,0,211,0.5
1.0,2.9415860176086426,1.0,0,0,212,0.5
1.0,2.588580846786499,1.0,0,0,213,0.5
1.0,2.8805832862854004,1.0,0,0,214,0.5
1.0,2.535581588745117,1.0,0,0,215,0.5
1.0,3.081592559814453,1.0,0,0,216,0.5
1.0,2.501582145690918,1.0,0,0,217,0.5
1.0,2.9915883541107178,1.0,0,0,218,0.5
1.0,2.830580711364746,1.0,0,0,219,0.5
1.0,3.260601043701172,1.0,0,0,220,0.5
1.0,2.729578971862793,0.0,0,0,221,0.5
0.0,4.154598236083984,0.0,0,0,222,0.5
1.0,5.284516334533691,1.0,0,0,223,0.5
1.0,3.009589195251465,1.0,0,0,224,0.5
1.0,3.7196223735809326,1.0,0,0,225,0.5
1.0,3.1735968589782715,0.0,0,0,226,0.5
1.0,2.734579086303711,1.0,0,0,227,0.5
1.0,2.7485787868499756,1.0,0,0,228,0.5
1.0,2.500581979751587,1.0,0,0,229,0.5
1.0,3.2005982398986816,1.0,0,0,230,0.5
1.0,2.6125805377960205,1.0,0,0,231,0.5
1.0,3.521613121032715,1.0,0,0,232,0.5
1.0,3.2345995903015137,1.0,0,0,233,0.5
1.0,2.9515864849090576,1.0,0,0,234,0.5
1.0,3.046590805053711,1.0,0,0,235,0.5
1.0,2.5185818672180176,1.0,0,0,236,0.5
1.0,2.3325841426849365,1.0,0,0,237,0.5
1.0,2.5735812187194824,1.0,0,0,238,0.5
1.0,3.094593048095703,1.0,0,0,239,0.5
1.0,2.3275842666625977,1.0,0,0,240,0.5
1.0,3.014589309692383,1.0,0,0,241,0.5
1.0,2.309584617614746,1.0,0,0,242,0.5
1.0,2.9635870456695557,1.0,0,0,243,0.5
1.0,2.7145793437957764,1.0,0,0,244,0.5
1.0,3.007589101791382,1.0,0,0,245,0.5
1.0,2.3835835456848145,1.0,0,0,246,0.5
1.0,2.6155805587768555,1.0,0,0,247,0.5
1.0,2.2755849361419678,1.0,0,0,248,0.5
1.0,3.4056077003479004,1.0,0,0,249,0.5
1.0,2.9615869522094727,1.0,0,0,250,0.5
1.0,2.797579288482666,0.0,0,0,251,0.5
1.0,4.054605484008789,1.0,0,0,252,0.5
1.0,2.8975839614868164,0.0,0,0,253,0.5
1.0,3.816622495651245,1.0,0,0,254,0.5
1.0,3.322603702545166,1.0,0,0,255,0.5
1.0,3.57161545753479,0.0,0,0,256,0.5
1.0,3.280601978302002,1.0,0,0,257,0.5
1.0,3.6436188220977783,1.0,0,0,258,0.5
1.0,3.5106124877929688,1.0,0,0,259,0.5
1.0,4.945540428161621,1.0,0,0,260,0.5
1.0,2.2365853786468506,1.0,0,0,261,0.5
1.0,2.99958872795105,0.0,0,0,262,0.5
1.0,2.8935837745666504,1.0,0,0,263,0.5
1.0,2.6595799922943115,1.0,0,0,264,0.5
1.0,2.7105793952941895,1.0,0,0,265,0.5
1.0,4.0246076583862305,1.0,0,0,266,0.5
1.0,3.263601064682007,1.0,0,0,267,0.5
1.0,2.775578498840332,1.0,0,0,268,0.5
1.0,2.734579086303711,1.0,0,0,269,0.5
1.0,2.5225818157196045,1.0,0,0,270,0.5
1.0,2.996588706970215,1.0,0,0,271,0.5
1.0,2.593580722808838,1.0,0,0,272,0.5
1.0,2.5785810947418213,1.0,0,0,273,0.5
1.0,2.738579034805298,1.0,0,0,274,0.5
1.0,2.8935837745666504,1.0,0,0,275,0.5
1.0,2.414583206176758,0.0,0,0,276,0.5
1.0,3.4696106910705566,1.0,0,0,277,0.5
1.0,3.033590316772461,1.0,0,0,278,0.5
1.0,2.4225831031799316,1.0,0,0,279,0.5
1.0,3.082592487335205,1.0,0,0,280,0.5
1.0,2.458582639694214,1.0,0,0,281,0.5
1.0,2.9675872325897217,1.0,0,0,282,0.5
1.0,3.516613006591797,1.0,0,0,283,0.5
1.0,2.50258207321167,1.0,0,0,284,0.5
1.0,2.777578353881836,1.0,0,0,285,0.5
1.0,2.741579055786133,0.0,0,0,286,0.5
1.0,2.3015847206115723,1.0,0,0,287,0.5
1.0,2.404583215713501,0.0,0,0,288,0.5
1.0,5.728484153747559,1.0,0,0,289,0.5
1.0,2.814579963684082,0.0,0,0,290,0.5
1.0,4.020607948303223,0.0,0,0,291,0.5
1.0,3.801623582839966,1.0,0,0,292,0.5
1.0,2.7505788803100586,1.0,0,0,293,0.5
1.0,2.076587438583374,1.0,0,0,294,0.5
1.0,2.308584451675415,1.0,0,0,295,0.5
1.0,3.527613401412964,0.0,0,0,296,0.5
1.0,3.7076218128204346,1.0,0,0,297,0.5
1.0,2.3365840911865234,1.0,0,0,298,0.5
1.0,3.6566195487976074,1.0,0,0,299,0.5
1.0,2.630580425262451,0.0,0,0,300,0.5
1.0,2.728579044342041,1.0,0,0,301,0.5
1.0,3.1395952701568604,1.0,0,0,302,0.5
1.0,2.263585090637207,1.0,0,0,303,0.5
1.0,2.5685811042785645,1.0,0,0,304,0.5
1.0,3.816622495651245,0.0,0,0,305,0.5
1.0,4.340584754943848,1.0,0,0,306,0.5
1.0,3.601616859436035,0.0,0,0,307,0.5
1.0,2.785578727722168,1.0,0,0,308,0.5
1.0,2.7005794048309326,1.0,0,0,309,0.5
1.0,4.266590118408203,1.0,0,0,310,0.5
1.0,2.771578550338745,1.0,0,0,311,0.5
1.0,2.4205830097198486,1.0,0,0,312,0.5
1.0,2.8405814170837402,1.0,0,0,313,0.5
1.0,2.6235804557800293,1.0,0,0,314,0.5
1.0,2.641580104827881,1.0,0,0,315,0.5
1.0,3.1775970458984375,1.0,0,0,316,0.5
1.0,3.236599922180176,1.0,0,0,317,0.5
1.0,2.7055792808532715,1.0,0,0,318,0.5
1.0,3.964611768722534,1.0,0,0,319,0.5
1.0,2.819580316543579,1.0,0,0,320,0.5
1.0,2.2765848636627197,1.0,0,0,321,0.5
1.0,2.2455852031707764,1.0,0,0,322,0.5
1.0,3.057591438293457,1.0,0,0,323,0.5
1.0,4.0416059494018555,1.0,0,0,324,0.5
1.0,2.174586296081543,0.0,0,0,325,0.5
1.0,3.8506200313568115,1.0,0,0,326,0.5
1.0,3.093593120574951,1.0,0,0,327,0.5
1.0,3.072592258453369,1.0,0,0,328,0.5
1.0,5.565495491027832,0.0,0,0,329,0.5
1.0,2.4225831031799316,1.0,0,0,330,0.5
1.0,4.07960319519043,1.0,0,0,331,0.5
1.0,3.581615924835205,1.0,0,0,332,0.5
1.0,3.2335996627807617,0.0,0,0,333,0.5
1.0,3.25260066986084,1.0,0,0,334,0.5
1.0,2.808579921722412,1.0,0,0,335,0.5
1.0,2.9335856437683105,1.0,0,0,336,0.5
1.0,2.775578498840332,0.0,0,0,337,0.5
1.0,5.68748664855957,0.0,0,0,338,0.5
0.0,3.2195990085601807,0.0,0,0,339,0.5
1.0,3.4726109504699707,1.0,0,0,340,0.5
1.0,2.591580867767334,1.0,0,0,341,0.5
1.0,2.2465853691101074,1.0,0,0,342,0.5
1.0,3.4816112518310547,1.0,0,0,343,0.5
1.0,2.2815847396850586,1.0,0,0,344,0.5
1.0,3.015589475631714,0.0,0,0,345,0.5
1.0,3.6676199436187744,1.0,0,0,346,0.5
1.0,2.1985859870910645,1.0,0,0,347,0.5
1.0,2.9475862979888916,1.0,0,0,348,0.5
1.0,3.4276087284088135,1.0,0,0,349,0.5
1.0,3.534613609313965,1.0,0,0,350,0.5
1.0,3.068592071533203,1.0,0,0,351,0.5
1.0,2.8785829544067383,1.0,0,0,352,0.5
1.0,3.1135940551757812,1.0,0,0,353,0.5
1.0,2.4845821857452393,1.0,0,0,354,0.5
1.0,2.73957896232605,1.0,0,0,355,0.5
1.0,3.7586240768432617,1.0,0,0,356,0.5
1.0,2.9285855293273926,1.0,0,0,357,0.5
1.0,4.818550109863281,1.0,0,0,358,0.5
1.0,2.6505801677703857,1.0,0,0,359,0.5
1.0,2.221585512161255,1.0,0,0,360,0.5
0.0,2.647580146789551,1.0,0,0,361,0.5
0.0,2.6115806102752686,0.0,0,0,362,0.5
1.0,4.925541877746582,1.0,0,0,363,0.5
1.0,2.7125792503356934,1.0,0,0,364,0.5
1.0,4.329585075378418,1.0,0,0,365,0.5
1.0,3.9366137981414795,1.0,0,0,366,0.5
1.0,2.799579381942749,1.0,0,0,367,0.5
1.0,3.6636197566986084,1.0,0,0,368,0.5
1.0,3.534613609313965,1.0,0,0,369,0.5
1.0,3.7916243076324463,0.0,0,0,370,0.5
0.0,2.17258620262146,0.0,0,0,371,0.5
0.0,5.168524742126465,0.0,0,0,372,0.5
1.0,2.5285816192626953,1.0,0,0,373,0.5
1.0,3.328604221343994,0.0,0,0,374,0.5
1.0,4.199594497680664,1.0,0,0,375,0.5
1.0,3.512612819671631,1.0,0,0,376,0.5
1.0,3.6676199436187744,1.0,0,0,377,0.5
1.0,2.545581340789795,1.0,0,0,378,0.5
1.0,2.535581588745117,1.0,0,0,379,0.5
1.0,2.810579776763916,1.0,0,0,380,0.5
1.0,3.1825971603393555,1.0,0,0,381,0.5
1.0,5.02253532409668,1.0,0,0,382,0.5
1.0,4.057604789733887,1.0,0,0,383,0.5
1.0,2.396583318710327,1.0,0,0,384,0.5
1.0,3.7626242637634277,1.0,0,0,385,0.5
1.0,2.9775876998901367,0.0,0,0,386,0.5
1.0,3.1575961112976074,1.0,0,0,387,0.5
1.0,3.347604990005493,1.0,0,0,388,0.5
1.0,2.732578992843628,1.0,0,0,389,0.5
1.0,3.4616103172302246,1.0,0,0,390,0.5
1.0,3.4266085624694824,1.0,0,0,391,0.5
1.0,2.9695873260498047,1.0,0,0,392,0.5
1.0,3.1425952911376953,1.0,0,0,393,0.5
1.0,2.3755836486816406,1.0,0,0,394,0.5
1.0,3.585616111755371,1.0,0,0,395,0.5
1.0,2.8895835876464844,1.0,0,0,396,0.5
1.0,2.733579158782959,1.0,0,0,397,0.5
1.0,2.69357967376709,1.0,0,0,398,0.5
1.0,3.074592113494873,1.0,0,0,399,0.5
1.0,4.912543296813965,1.0,0,0,400,0.5
1.0,3.1545958518981934,1.0,0,0,401,0.5
1.0,6.12345552444458,1.0,0,0,402,0.5
1.0,2.462582588195801,1.0,0,0,403,0.5
1.0,2.4225831031799316,1.0,0,0,404,0.5
1.0,2.8845834732055664,1.0,0,0,405,0.5
1.0,2.397583484649658,0.0,0,0,406,0.5
0.0,2.8775830268859863,0.0,0,0,407,0.5
1.0,4.138599395751953,1.0,0,0,408,0.5
1.0,2.830580711364746,0.0,0,0,409,0.5
1.0,4.306587219238281,1.0,0,0,410,0.5
1.0,2.690579652786255,1.0,0,0,411,0.5
1.0,2.50258207321167,1.0,0,0,412,0.5
1.0,4.515571594238281,1.0,0,0,413,0.5
1.0,2.593580722808838,1.0,0,0,414,0.5
1.0,2.99958872795105,1.0,0,0,415,0.5
1.0,2.4155831336975098,1.0,0,0,416,0.5
1.0,3.1875975131988525,1.0,0,0,417,0.5
1.0,4.117600440979004,1.0,0,0,418,0.5
1.0,2.3415842056274414,0.0,0,0,419,0.5
1.0,3.060591697692871,1.0,0,0,420,0.5
1.0,4.195594787597656,0.0,0,0,421,0.5
1.0,3.3726062774658203,1.0,0,0,422,0.5
1.0,3.081592559814453,1.0,0,0,423,0.5
1.0,2.801579475402832,1.0,0,0,424,0.5
1.0,3.2375998497009277,1.0,0,0,425,0.5
1.0,2.9685873985290527,1.0,0,0,426,0.5
1.0,2.7575788497924805,0.0,0,0,427,0.5
1.0,4.296587944030762,1.0,0,0,428,0.5
1.0,3.6916210651397705,1.0,0,0,429,0.5
1.0,2.799579381942749,1.0,0,0,430,0.5
1.0,2.3815836906433105,1.0,0,0,431,0.5
1.0,3.1765971183776855,1.0,0,0,432,0.5
1.0,2.268584966659546,1.0,0,0,433,0.5
1.0,2.5185818672180176,1.0,0,0,434,0.5
1.0,2.1995859146118164,1.0,0,0,435,0.5
1.0,2.9115846157073975,1.0,0,0,436,0.5
0.0,2.3305842876434326,1.0,0,0,437,0.5
0.0,2.3895835876464844,0.0,0,0,438,0.5
1.0,2.458582639694214,1.0,0,0,439,0.5
1.0,3.626617908477783,1.0,0,0,440,0.5
1.0,3.4876115322113037,1.0,0,0,441,0.5
1.0,2.9085845947265625,1.0,0,0,442,0.5
1.0,2.598580837249756,1.0,0,0,443,0.5
1.0,4.725556373596191,1.0,0,0,444,0.5
1.0,4.231592178344727,1.0,0,0,445,0.5
1.0,4.318586349487305,1.0,0,0,446,0.5
1.0,2.7195792198181152,0.0,0,0,447,0.5
1.0,4.558568954467773,1.0,0,0,448,0.5
0.0,2.019587993621826,0.0,0,0,449,0.5
1.0,3.7926242351531982,1.0,0,0,450,0.5
1.0,2.797579288482666,1.0,0,0,451,0.5
1.0,2.271584987640381,1.0,0,0,452,0.5
1.0,2.1895859241485596,0.0,0,0,453,0.5
1.0,4.648562431335449,1.0,0,0,454,0.5
0.0,2.0965871810913086,0.0,0,0,455,0.5
1.0,3.6436188220977783,1.0,0,0,456,0.5
1.0,3.557614803314209,1.0,0,0,457,0.5
1.0,2.3245842456817627,1.0,0,0,458,0.5
1.0,3.060591697692871,1.0,0,0,459,0.5
1.0,2.1585865020751953,1.0,0,0,460,0.5
1.0,4.697558403015137,1.0,0,0,461,0.5
1.0,3.040590763092041,1.0,0,0,462,0.5
1.0,3.2375998497009277,1.0,0,0,463,0.5
1.0,3.2025980949401855,1.0,0,0,464,0.5
1.0,3.9776108264923096,1.0,0,0,465,0.5
1.0,2.9455862045288086,1.0,0,0,466,0.5
1.0,2.646580219268799,1.0,0,0,467,0.5
1.0,2.7095794677734375,1.0,0,0,468,0.5
1.0,2.493582248687744,1.0,0,0,469,0.5
1.0,3.27860164642334,1.0,0,0,470,0.5
1.0,3.1195943355560303,1.0,0,0,471,0.5
1.0,2.5535812377929688,1.0,0,0,472,0.5
1.0,2.831580877304077,1.0,0,0,473,0.5
1.0,2.694579601287842,1.0,0,0,474,0.5
1.0,2.7505788803100586,0.0,0,0,475,0.5
1.0,3.1245946884155273,0.0,0,0,476,0.5
1.0,4.794551849365234,1.0,0,0,477,0.5
1.0,2.6685798168182373,0.0,0,0,478,0.5
1.0,4.218593597412109,1.0,0,0,479,0.5
1.0,3.6416187286376953,1.0,0,0,480,0.5
1.0,4.89454460144043,1.0,0,0,481,0.5
1.0,3.9596121311187744,0.0,0,0,482,0.5
1.0,3.818622350692749,1.0,0,0,483,0.5
1.0,4.039606094360352,1.0,0,0,484,0.5
1.0,2.39858341217041,1.0,0,0,485,0.5
1.0,4.568568229675293,1.0,0,0,486,0.5
1.0,3.088593006134033,0.0,0,0,487,0.5
1.0,4.0416059494018555,1.0,0,0,488,0.5
1.0,2.5185818672180176,1.0,0,0,489,0.5
1.0,2.1975858211517334,1.0,0,0,490,0.5
1.0,2.805579662322998,1.0,0,0,491,0.5
1.0,4.1305999755859375,1.0,0,0,492,0.5
1.0,2.351583957672119,1.0,0,0,493,0.5
1.0,2.4715824127197266,1.0,0,0,494,0.5
1.0,2.3295841217041016,1.0,0,0,495,0.5
1.0,2.73957896232605,1.0,0,0,496,0.5
1.0,2.84658145904541,1.0,0,0,497,0.5
1.0,3.056591510772705,1.0,0,0,498,0.5
1.0,3.576615810394287,1.0,0,0,499,0.5
1.0,2.3895835876464844,1.0,0,0,500,0.5
1.0,4.462575912475586,0.0,0,1,1,0.5
0.0,2.82658052444458,1.0,0,1,2,0.5
0.0,3.4576101303100586,1.0,0,1,3,0.5
0.0,2.997588634490967,0.0,0,1,4,0.5
1.0,4.132599830627441,0.0,0,1,5,0.5
0.0,3.509612560272217,1.0,0,1,6,0.5
0.0,3.335604429244995,0.0,0,1,7,0.5
0.0,2.3295841217041016,0.0,0,1,8,0.5
1.0,4.114601135253906,0.0,0,1,9,0.5
0.0,2.4745824337005615,1.0,0,1,10,0.5
0.0,2.2995846271514893,1.0,0,1,11,0.5
0.0,3.333604335784912,1.0,0,1,12,0.5
0.0,2.2005858421325684,0.0,0,1,13,0.5
0.0,2.1385867595672607,1.0,0,1,14,0.5
0.0,2.9285855293273926,0.0,0,1,15,0.5
0.0,4.007608413696289,0.0,0,1,16,0.5
1.0,3.4116079807281494,1.0,0,1,17,0.5
0.0,3.2225990295410156,0.0,0,1,18,0.5
1.0,2.7015795707702637,0.0,0,1,19,0.5
1.0,5.972466468811035,1.0,0,1,20,0.5
0.0,4.941540718078613,0.0,0,1,21,0.5
1.0,3.970611333847046,1.0,0,1,22,0.5
1.0,2.822580337524414,1.0,0,1,23,0.5
1.0,2.631580352783203,1.0,0,1,24,0.5
1.0,2.9635870456695557,1.0,0,1,25,0.5
1.0,2.4735822677612305,0.0,0,1,26,0.5
1.0,5.461503028869629,0.0,0,1,27,0.5
1.0,3.7626242637634277,0.0,0,1,28,0.5
0.0,2.084587335586548,0.0,0,1,29,0.5
1.0,2.726579189300537,1.0,0,1,30,0.5
1.0,2.4715824127197266,1.0,0,1,31,0.5
1.0,2.8845834732055664,1.0,0,1,32,0.5
1.0,2.9725875854492188,1.0,0,1,33,0.5
1.0,2.6625800132751465,0.0,0,1,34,0.5
1.0,6.20544958114624,0.0,0,1,35,0.5
1.0,4.890544891357422,0.0,0,1,36,0.5
0.0,4.532570838928223,0.0,0,1,37,0.5
1.0,7.82833194732666,1.0,0,1,38,0.5
1.0,3.9196150302886963,1.0,0,1,39,0.5
1.0,3.1175942420959473,0.0,0,1,40,0.5
0.0,3.590616226196289,0.0,0,1,41,0.5
1.0,2.8575820922851562,1.0,0,1,42,0.5
0.0,4.820549964904785,0.0,0,1,43,0.5
0.0,2.3785836696624756,1.0,0,1,44,0.5
0.0,2.633580207824707,0.0,0,1,45,0.5
1.0,4.793551445007324,0.0,0,1,46,0.5
1.0,6.195450305938721,1.0,0,1,47,0.5
1.0,2.357583999633789,1.0,0,1,48,0.5
1.0,3.9126155376434326,1.0,0,1,49,0.5
1.0,3.236599922180176,1.0,0,1,50,0.5
1.0,2.3275842666625977,1.0,0,1,51,0.5
1.0,2.542581558227539,0.0,0,1,52,0.5
1.0,2.541581630706787,1.0,0,1,53,0.5
1.0,3.516613006591797,1.0,0,1,54,0.5
1.0,3.9206149578094482,1.0,0,1,55,0.5
1.0,3.295602560043335,0.0,0,1,56,0.5
1.0,5.5774946212768555,0.0,0,1,57,0.5
1.0,2.9455862045288086,0.0,0,1,58,0.5
0.0,2.355583906173706,0.0,0,1,59,0.5
0.0,2.217585563659668,0.0,0,1,60,0.5
0.0,2.0545878410339355,1.0,0,1,61,0.5
0.0,2.3805835247039795,0.0,0,1,62,0.5
1.0,3.1875975131988525,1.0,0,1,63,0.5
1.0,3.6416187286376953,1.0,0,1,64,0.5
1.0,3.564615249633789,1.0,0,1,65,0.5
1.0,3.1165943145751953,1.0,0,1,66,0.5
1.0,2.5275816917419434,1.0,0,1,67,0.5
1.0,3.4186081886291504,1.0,0,1,68,0.5
1.0,3.7876245975494385,0.0,0,1,69,0.5
1.0,5.294515609741211,1.0,0,1,70,0.5
1.0,3.011589288711548,0.0,0,1,71,0.5
1.0,3.056591510772705,1.0,0,1,72,0.5
0.0,2.827580690383911,0.0,0,1,73,0.5
1.0,3.2035982608795166,1.0,0,1,74,0.5
1.0,4.947540283203125,1.0,0,1,75,0.5
1.0,2.4395828247070312,0.0,0,1,76,0.5
1.0,3.538613796234131,1.0,0,1,77,0.5
1.0,3.034590244293213,0.0,0,1,78,0.5
1.0,5.0015363693237305,1.0,0,1,79,0.5
1.0,3.6676199436187744,1.0,0,1,80,0.5
1.0,3.052591323852539,0.0,0,1,81,0.5
0.0,4.5535688400268555,1.0,0,1,82,0.5
0.0,3.8466203212738037,1.0,0,1,83,0.5
0.0,3.5146126747131348,0.0,0,1,84,0.5
0.0,2.2735848426818848,0.0,0,1,85,0.5
0.0,3.255600690841675,1.0,0,1,86,0.5
0.0,2.4715824127197266,0.0,0,1,87,0.5
0.0,6.366437911987305,0.0,0,1,88,0.5
1.0,3.300602912902832,1.0,0,1,89,0.5
1.0,3.1555960178375244,1.0,0,1,90,0.5
1.0,3.3786063194274902,1.0,0,1,91,0.5
1.0,4.1725969314575195,1.0,0,1,92,0.5
1.0,3.044590950012207,1.0,0,1,93,0.5
1.0,4.955539703369141,0.0,0,1,94,0.5
1.0,3.6836206912994385,1.0,0,1,95,0.5
1.0,2.82658052444458,0.0,0,1,96,0.5
1.0,5.956467628479004,0.0,0,1,97,0.5
0.0,6.124455451965332,0.0,0,1,98,0.5
0.0,2.5765810012817383,0.0,0,1,99,0.5
1.0,3.9106156826019287,1.0,0,1,100,0.5
1.0,4.2165937423706055,1.0,0,1,101,0.5
1.0,4.547569274902344,0.0,0,1,102,0.5
1.0,3.6436188220977783,1.0,0,1,103,0.5
1.0,4.970539093017578,1.0,0,1,104,0.5
1.0,3.1155941486358643,1.0,0,1,105,0.5
1.0,3.7076218128204346,0.0,0,1,106,0.5
1.0,2.9785876274108887,0.0,0,1,107,0.5
1.0,5.122528076171875,0.0,0,1,108,0.5
0.0,5.813477993011475,0.0,0,1,109,0.5
1.0,3.267601251602173,1.0,0,1,110,0.5
0.0,2.2015857696533203,1.0,0,1,111,0.5
1.0,3.4346089363098145,1.0,0,1,112,0.5
0.0,3.7046217918395996,0.0,0,1,113,0.5
1.0,2.9245853424072266,0.0,0,1,114,0.5
0.0,3.512612819671631,0.0,0,1,115,0.5
0.0,2.2425854206085205,0.0,0,1,116,0.5
1.0,7.10138463973999,1.0,0,1,117,0.5
1.0,2.3685836791992188,0.0,0,1,118,0.5
1.0,2.8895835876464844,1.0,0,1,119,0.5
1.0,2.4795823097229004,1.0,0,1,120,0.5
0.0,3.286602020263672,1.0,0,1,121,0.5
0.0,3.026589870452881,0.0,0,1,122,0.5
0.0,3.4596102237701416,0.0,0,1,123,0.5
1.0,2.77457857131958,0.0,0,1,124,0.5
1.0,4.469574928283691,1.0,0,1,125,0.5
1.0,3.536613941192627,1.0,0,1,126,0.5
1.0,2.5275816917419434,1.0,0,1,127,0.5
1.0,2.0505878925323486,1.0,0,1,128,0.5
1.0,2.9255852699279785,1.0,0,1,129,0.5
1.0,2.9575867652893066,0.0,0,1,130,0.5
1.0,3.062591552734375,1.0,0,1,131,0.5
1.0,3.357605457305908,1.0,0,1,132,0.5
0.0,2.731579065322876,0.0,0,1,133,0.5
1.0,2.9275853633880615,0.0,0,1,134,0.5
0.0,3.9186151027679443,0.0,0,1,135,0.5
1.0,2.9205851554870605,1.0,0,1,136,0.5
1.0,4.128600120544434,0.0,0,1,137,0.5
1.0,2.9705872535705566,0.0,0,1,138,0.5
0.0,3.080592632293701,0.0,0,1,139,0.5
0.0,6.462430953979492,1.0,0,1,140,0.5
0.0,3.3946070671081543,1.0,0,1,141,0.5
0.0,3.1235945224761963,1.0,0,1,142,0.5
0.0,4.316586494445801,0.0,0,1,143,0.5
0.0,2.9985885620117188,1.0,0,1,144,0.5
0.0,3.8686187267303467,1.0,0,1,145,0.5
0.0,2.226585626602173,1.0,0,1,146,0.5
0.0,2.03358793258667,0.0,0,1,147,0.5
0.0,3.800623655319214,0.0,0,1,148,0.5
0.0,4.3225860595703125,0.0,0,1,149,0.5
1.0,3.8756182193756104,1.0,0,1,150,0.5
1.0,3.520613193511963,1.0,0,1,151,0.5
1.0,4.388581275939941,1.0,0,1,152,0.5
1.0,2.3305842876434326,0.0,0,1,153,0.5
0.0,2.160586357116699,0.0,0,1,154,0.5
1.0,3.277601718902588,1.0,0,1,155,0.5
1.0,2.993588447570801,0.0,0,1,156,0.5
1.0,4.359582901000977,1.0,0,1,157,0.5
1.0,3.1075937747955322,0.0,0,1,158,0.5
0.0,3.4856114387512207,1.0,0,1,159,0.5
0.0,2.7505788803100586,0.0,0,1,160,0.5
1.0,6.272444725036621,1.0,0,1,161,0.5
0.0,4.623563766479492,0.0,0,1,162,0.5
1.0,2.829580783843994,1.0,0,1,163,0.5
1.0,2.842581272125244,1.0,0,1,164,0.5
1.0,2.5635812282562256,0.0,0,1,165,0.5
0.0,2.406583309173584,0.0,0,1,166,0.5
0.0,4.881545066833496,0.0,0,1,167,0.5
1.0,2.458582639694214,1.0,0,1,168,0.5
1.0,3.1345949172973633,1.0,0,1,169,0.5
1.0,2.360583782196045,1.0,0,1,170,0.5
1.0,3.4746108055114746,0.0,0,1,171,0.5
0.0,3.9546124935150146,1.0,0,1,172,0.5
0.0,2.5675811767578125,0.0,0,1,173,0.5
1.0,4.482574462890625,1.0,0,1,174,0.5
1.0,4.362583160400391,0.0,0,1,175,0.5
1.0,4.821549415588379,1.0,0,1,176,0.5
1.0,3.863619089126587,0.0,0,1,177,0.5
0.0,3.763624429702759,0.0,0,1,178,0.5
1.0,4.0886030197143555,1.0,0,1,179,0.5
1.0,4.097601890563965,1.0,0,1,180,0.5
1.0,3.7596242427825928,0.0,0,1,181,0.5
0.0,2.2425854206085205,1.0,0,1,182,0.5
0.0,2.300584554672241,0.0,0,1,183,0.5
1.0,5.0215349197387695,1.0,0,1,184,0.5
1.0,4.434577941894531,0.0,0,1,185,0.5
0.0,4.110601425170898,0.0,0,1,186,0.5
1.0,3.949612855911255,0.0,0,1,187,0.5
1.0,4.62856388092041,1.0,0,1,188,0.5
1.0,3.535613775253296,1.0,0,1,189,0.5
1.0,2.829580783843994,1.0,0,1,190,0.5
1.0,3.4296088218688965,0.0,0,1,191,0.5
0.0,3.4376091957092285,1.0,0,1,192,0.5
0.0,2.3415842056274414,0.0,0,1,193,0.5
1.0,3.6436188220977783,1.0,0,1,194,0.5
1.0,4.142599105834961,1.0,0,1,195,0.5
1.0,2.9545865058898926,1.0,0,1,196,0.5
1.0,2.778578519821167,1.0,0,1,197,0.5
1.0,3.4936118125915527,0.0,0,1,198,0.5
1.0,6.859402179718018,1.0,0,1,199,0.5
1.0,2.2055857181549072,0.0,0,1,200,0.5
1.0,2.7105793952941895,1.0,0,1,201,0.5
0.0,2.5315816402435303,1.0,0,1,202,0.5
1.0,5.849475383758545,0.0,0,1,203,0.5
0.0,2.8605823516845703,0.0,0,1,204,0.5
1.0,4.763553619384766,0.0,0,1,205,0.5
0.0,2.858582019805908,0.0,0,1,206,0.5
0.0,2.2545852661132812,0.0,0,1,207,0.5
0.0,3.878618001937866,0.0,0,1,208,0.5
0.0,4.609564781188965,1.0,0,1,209,0.5
0.0,5.207521438598633,1.0,0,1,210,0.5
0.0,2.3825836181640625,0.0,0,1,211,0.5
1.0,3.7176222801208496,1.0,0,1,212,0.5
1.0,5.463502883911133,1.0,0,1,213,0.5
1.0,4.000609397888184,1.0,0,1,214,0.5
1.0,2.8925838470458984,1.0,0,1,215,0.5
1.0,2.219585657119751,0.0,0,1,216,0.5
0.0,3.301602840423584,1.0,0,1,217,0.5
1.0,5.041533470153809,1.0,0,1,218,0.5
0.0,5.490501403808594,0.0,0,1,219,0.5
1.0,6.743410587310791,1.0,0,1,220,0.5
0.0,3.1555960178375244,1.0,0,1,221,0.5
1.0,3.4046077728271484,1.0,0,1,222,0.5
1.0,3.1745967864990234,1.0,0,1,223,0.5
0.0,6.219448566436768,0.0,0,1,224,0.5
1.0,2.4845821857452393,1.0,0,1,225,0.5
1.0,2.2855849266052246,1.0,0,1,226,0.5
1.0,3.588616371154785,1.0,0,1,227,0.5
1.0,2.505581855773926,1.0,0,1,228,0.5
1.0,3.617617607116699,0.0,0,1,229,0.5
0.0,2.633580207824707,0.0,0,1,230,0.5
1.0,4.212594032287598,0.0,0,1,231,0.5
0.0,4.686559677124023,0.0,0,1,232,0.5
0.0,5.01253604888916,0.0,0,1,233,0.5
1.0,3.4666104316711426,1.0,0,1,234,0.5
1.0,4.954540252685547,1.0,0,1,235,0.5
1.0,2.498582124710083,1.0,0,1,236,0.5
1.0,2.6655797958374023,1.0,0,1,237,0.5
1.0,4.574567794799805,1.0,0,1,238,0.5
1.0,2.3495841026306152,0.0,0,1,239,0.5
1.0,2.9715874195098877,1.0,0,1,240,0.5
1.0,2.0895872116088867,1.0,0,1,241,0.5
1.0,3.8916170597076416,1.0,0,1,242,0.5
1.0,3.4356091022491455,1.0,0,1,243,0.5
1.0,2.2915847301483154,1.0,0,1,244,0.5
1.0,3.535613775253296,1.0,0,1,245,0.5
1.0,3.557614803314209,1.0,0,1,246,0.5
1.0,3.618617534637451,0.0,0,1,247,0.5
1.0,2.221585512161255,1.0,0,1,248,0.5
1.0,3.527613401412964,1.0,0,1,249,0.5
1.0,4.330585479736328,0.0,0,1,250,0.5
1.0,4.369582176208496,1.0,0,1,251,0.5
1.0,4.2755889892578125,0.0,0,1,252,0.5
1.0,5.639490127563477,1.0,0,1,253,0.5
1.0,3.572615623474121,1.0,0,1,254,0.5
1.0,3.4726109504699707,1.0,0,1,255,0.5
1.0,2.6575798988342285,1.0,0,1,256,0.5
1.0,3.6506190299987793,0.0,0,1,257,0.5
1.0,2.7495789527893066,0.0,0,1,258,0.5
0.0,3.297602653503418,1.0,0,1,259,0.5
0.0,2.547581434249878,0.0,0,1,260,0.5
0.0,3.4136080741882324,0.0,0,1,261,0.5
0.0,2.6575798988342285,0.0,0,1,262,0.5
1.0,3.947613000869751,1.0,0,1,263,0.5
1.0,2.8565821647644043,1.0,0,1,264,0.5
1.0,2.6645798683166504,1.0,0,1,265,0.5
1.0,2.492582082748413,0.0,0,1,266,0.5
0.0,1.964587926864624,0.0,0,1,267,0.5
1.0,4.08060359954834,1.0,0,1,268,0.5
1.0,4.0196075439453125,1.0,0,1,269,0.5
1.0,3.2075984477996826,1.0,0,1,270,0.5
1.0,2.540581464767456,1.0,0,1,271,0.5
1.0,2.5675811767578125,0.0,0,1,272,0.5
1.0,3.821622133255005,1.0,0,1,273,0.5
0.0,4.343584060668945,1.0,0,1,274,0.5
0.0,3.7416234016418457,1.0,0,1,275,0.5
0.0,3.2055983543395996,1.0,0,1,276,0.5
0.0,4.498573303222656,0.0,0,1,277,0.5
1.0,2.6595799922943115,0.0,0,1,278,0.5
1.0,4.246591567993164,1.0,0,1,279,0.5
1.0,5.382509231567383,1.0,0,1,280,0.5
1.0,2.5265817642211914,0.0,0,1,281,0.5
0.0,3.088593006134033,1.0,0,1,282,0.5
0.0,3.018589496612549,0.0,0,1,283,0.5
1.0,3.28560209274292,1.0,0,1,284,0.5
1.0,5.3855085372924805,0.0,0,1,285,0.5
1.0,4.217593193054199,1.0,0,1,286,0.5
1.0,6.487429141998291,1.0,0,1,287,0.5
1.0,3.01958966255188,1.0,0,1,288,0.5
1.0,3.9846103191375732,1.0,0,1,289,0.5
1.0,3.322603702545166,1.0,0,1,290,0.5
1.0,3.313603401184082,0.0,0,1,291,0.5
0.0,5.669487953186035,1.0,0,1,292,0.5
0.0,3.6446189880371094,0.0,0,1,293,0.5
0.0,5.1935224533081055,0.0,0,1,294,0.5
0.0,3.6396186351776123,0.0,0,1,295,0.5
1.0,3.071592092514038,1.0,0,1,296,0.5
1.0,2.5795810222625732,1.0,0,1,297,0.5
1.0,2.992588520050049,1.0,0,1,298,0.5
1.0,2.641580104827881,1.0,0,1,299,0.5
1.0,2.9475862979888916,1.0,0,1,300,0.5
1.0,2.6685798168182373,0.0,0,1,301,0.5
1.0,3.004589080810547,1.0,0,1,302,0.5
1.0,2.440582752227783,1.0,0,1,303,0.5
1.0,2.9575867652893066,0.0,0,1,304,0.5
1.0,4.559568405151367,1.0,0,1,305,0.5
1.0,3.613617420196533,0.0,0,1,306,0.5
1.0,3.6496191024780273,0.0,0,1,307,0.5
0.0,3.7926242351531982,1.0,0,1,308,0.5
0.0,4.515571594238281,0.0,0,1,309,0.5
0.0,3.7136220932006836,0.0,0,1,310,0.5
0.0,3.1235945224761963,0.0,0,1,311,0.5
1.0,5.611492156982422,1.0,0,1,312,0.5
1.0,2.509582042694092,1.0,0,1,313,0.5
1.0,3.021589756011963,1.0,0,1,314,0.5
1.0,4.493573188781738,1.0,0,1,315,0.5
1.0,5.138526916503906,1.0,0,1,316,0.5
1.0,3.324604034423828,1.0,0,1,317,0.5
1.0,2.413583278656006,1.0,0,1,318,0.5
1.0,3.4666104316711426,1.0,0,1,319,0.5
1.0,2.5185818672180176,1.0,0,1,320,0.5
1.0,2.8835833072662354,1.0,0,1,321,0.5
1.0,3.3986072540283203,1.0,0,1,322,0.5
1.0,2.598580837249756,0.0,0,1,323,0.5
0.0,3.275601625442505,0.0,0,1,324,0.5
1.0,3.077592372894287,1.0,0,1,325,0.5
1.0,2.9385857582092285,1.0,0,1,326,0.5
1.0,2.6965794563293457,1.0,0,1,327,0.5
1.0,3.9796106815338135,0.0,0,1,328,0.5
1.0,4.821549415588379,1.0,0,1,329,0.5
1.0,3.4336090087890625,1.0,0,1,330,0.5
0.0,3.1415953636169434,0.0,0,1,331,0.5
1.0,2.814579963684082,0.0,0,1,332,0.5
1.0,4.286588668823242,1.0,0,1,333,0.5
1.0,4.127599716186523,1.0,0,1,334,0.5
1.0,3.052591323852539,0.0,0,1,335,0.5
1.0,3.6626195907592773,0.0,0,1,336,0.5
1.0,3.4766111373901367,1.0,0,1,337,0.5
0.0,4.901543617248535,0.0,0,1,338,0.5
1.0,2.836581230163574,1.0,0,1,339,0.5
1.0,3.1865973472595215,0.0,0,1,340,0.5
1.0,4.351583480834961,0.0,0,1,341,0.5
1.0,2.8825831413269043,0.0,0,1,342,0.5
1.0,4.800551414489746,1.0,0,1,343,0.5
1.0,4.0026092529296875,1.0,0,1,344,0.5
1.0,2.5745811462402344,1.0,0,1,345,0.5
1.0,2.6985795497894287,1.0,0,1,346,0.5
1.0,2.9425859451293945,1.0,0,1,347,0.5
1.0,3.9766108989715576,1.0,0,1,348,0.5
1.0,4.021607398986816,1.0,0,1,349,0.5
1.0,2.499582052230835,1.0,0,1,350,0.5
1.0,3.1215944290161133,0.0,0,1,351,0.5
0.0,3.2245993614196777,0.0,0,1,352,0.5
0.0,2.775578498840332,0.0,0,1,353,0.5
1.0,2.5815811157226562,1.0,0,1,354,0.5
1.0,2.8915836811065674,1.0,0,1,355,0.5
1.0,3.492611885070801,0.0,0,1,356,0.5
1.0,3.256600856781006,0.0,0,1,357,0.5
0.0,2.2415852546691895,0.0,0,1,358,0.5
1.0,5.690486907958984,1.0,0,1,359,0.5
1.0,3.3636057376861572,1.0,0,1,360,0.5
1.0,2.849581718444824,0.0,0,1,361,0.5
1.0,2.540581464767456,1.0,0,1,362,0.5
1.0,3.257600784301758,0.0,0,1,363,0.5
1.0,5.495500564575195,1.0,0,1,364,0.5
1.0,4.471574783325195,0.0,0,1,365,0.5
0.0,3.001588821411133,0.0,0,1,366,0.5
0.0,2.7555787563323975,1.0,0,1,367,0.5
0.0,2.587580919265747,1.0,0,1,368,0.5
0.0,2.5715811252593994,0.0,0,1,369,0.5
0.0,5.932469367980957,0.0,0,1,370,0.5
1.0,4.001608848571777,1.0,0,1,371,0.5
1.0,2.9675872325897217,1.0,0,1,372,0.5
1.0,3.017589569091797,0.0,0,1,373,0.5
1.0,2.7435789108276367,1.0,0,1,374,0.5
1.0,2.8525819778442383,1.0,0,1,375,0.5
1.0,2.446582794189453,1.0,0,1,376,0.5
1.0,2.9435861110687256,1.0,0,1,377,0.5
1.0,3.922614812850952,0.0,0,1,378,0.5
1.0,2.9255852699279785,0.0,0,1,379,0.5
0.0,4.67356014251709,1.0,0,1,380,0.5
0.0,3.796623945236206,0.0,0,1,381,0.5
0.0,3.630618095397949,1.0,0,1,382,0.5
1.0,5.109528541564941,0.0,0,1,383,0.5
0.0,2.5785810947418213,0.0,0,1,384,0.5
0.0,2.6715798377990723,1.0,0,1,385,0.5
0.0,2.4205830097198486,1.0,0,1,386,0.5
0.0,3.26560115814209,0.0,0,1,387,0.5
0.0,6.867401599884033,0.0,0,1,388,0.5
0.0,2.6205804347991943,0.0,0,1,389,0.5
1.0,3.045590877532959,1.0,0,1,390,0.5
1.0,4.424578666687012,0.0,0,1,391,0.5
1.0,3.1785969734191895,1.0,0,1,392,0.5
1.0,4.597565650939941,1.0,0,1,393,0.5
1.0,4.111600875854492,1.0,0,1,394,0.5
1.0,2.3885834217071533,0.0,0,1,395,0.5
1.0,5.408507347106934,0.0,0,1,396,0.5
0.0,5.492501258850098,1.0,0,1,397,0.5
0.0,3.1425952911376953,0.0,0,1,398,0.5
0.0,3.279601812362671,0.0,0,1,399,0.5
1.0,5.817477703094482,1.0,0,1,400,0.5
1.0,3.8706185817718506,1.0,0,1,401,0.5
1.0,2.7465789318084717,1.0,0,1,402,0.5
1.0,2.6175804138183594,0.0,0,1,403,0.5
1.0,4.5315704345703125,1.0,0,1,404,0.5
1.0,3.023589849472046,1.0,0,1,405,0.5
1.0,2.3855834007263184,1.0,0,1,406,0.5
1.0,2.582581043243408,1.0,0,1,407,0.5
1.0,3.546614170074463,0.0,0,1,408,0.5
1.0,4.994537353515625,0.0,0,1,409,0.5
0.0,4.942541122436523,0.0,0,1,410,0.5
1.0,4.362583160400391,0.0,0,1,411,0.5
1.0,6.906398773193359,1.0,0,1,412,0.5
1.0,3.005589008331299,0.0,0,1,413,0.5
1.0,2.8405814170837402,1.0,0,1,414,0.5
1.0,2.8405814170837402,1.0,0,1,415,0.5
1.0,2.9605870246887207,0.0,0,1,416,0.5
1.0,4.437577247619629,1.0,0,1,417,0.5
1.0,2.4385828971862793,1.0,0,1,418,0.5
1.0,3.038590431213379,0.0,0,1,419,0.5
1.0,3.8476202487945557,1.0,0,1,420,0.5
1.0,3.1585960388183594,1.0,0,1,421,0.5
1.0,3.592616558074951,1.0,0,1,422,0.5
1.0,3.6516191959381104,1.0,0,1,423,0.5
1.0,3.2315995693206787,1.0,0,1,424,0.5
1.0,2.785578727722168,1.0,0,1,425,0.5
1.0,3.036590576171875,1.0,0,1,426,0.5
1.0,2.8765830993652344,1.0,0,1,427,0.5
1.0,3.244600296020508,1.0,0,1,428,0.5
1.0,2.6605799198150635,0.0,0,1,429,0.5
1.0,3.900616407394409,1.0,0,1,430,0.5
1.0,2.830580711364746,1.0,0,1,431,0.5
1.0,2.6205804347991943,0.0,0,1,432,0.5
0.0,3.594616413116455,0.0,0,1,433,0.5
0.0,3.2035982608795166,1.0,0,1,434,0.5
0.0,2.168586254119873,1.0,0,1,435,0.5
0.0,3.028590202331543,1.0,0,1,436,0.5
0.0,3.3526053428649902,0.0,0,1,437,0.5
0.0,3.5016121864318848,1.0,0,1,438,0.5
0.0,2.9035842418670654,0.0,0,1,439,0.5
1.0,4.504572868347168,0.0,0,1,440,0.5
0.0,3.1155941486358643,0.0,0,1,441,0.5
0.0,5.73348331451416,1.0,0,1,442,0.5
0.0,3.4056077003479004,0.0,0,1,443,0.5
0.0,5.589493751525879,0.0,0,1,444,0.5
0.0,3.4366092681884766,0.0,0,1,445,0.5
0.0,5.245518684387207,0.0,0,1,446,0.5
1.0,5.667488098144531,1.0,0,1,447,0.5
1.0,3.044590950012207,1.0,0,1,448,0.5
1.0,2.9025840759277344,0.0,0,1,449,0.5
1.0,3.550614356994629,0.0,0,1,450,0.5
1.0,2.540581464767456,1.0,0,1,451,0.5
1.0,3.1205945014953613,1.0,0,1,452,0.5
1.0,2.7165791988372803,0.0,0,1,453,0.5
1.0,3.4366092681884766,1.0,0,1,454,0.5
1.0,3.8056232929229736,1.0,0,1,455,0.5
1.0,4.623563766479492,0.0,0,1,456,0.5
1.0,2.690579652786255,1.0,0,1,457,0.5
1.0,2.594580888748169,1.0,0,1,458,0.5
1.0,2.8885836601257324,0.0,0,1,459,0.5
0.0,2.8695826530456543,0.0,0,1,460,0.5
1.0,3.3756062984466553,1.0,0,1,461,0.5
1.0,3.858619451522827,1.0,0,1,462,0.5
1.0,2.3945834636688232,0.0,0,1,463,0.5
1.0,3.275601625442505,1.0,0,1,464,0.5
1.0,3.555614709854126,1.0,0,1,465,0.5
1.0,2.3445839881896973,1.0,0,1,466,0.5
1.0,2.63558030128479,0.0,0,1,467,0.5
1.0,3.879617929458618,1.0,0,1,468,0.5
1.0,3.080592632293701,1.0,0,1,469,0.5
1.0,2.552581310272217,1.0,0,1,470,0.5
1.0,3.009589195251465,1.0,0,1,471,0.5
1.0,2.5665812492370605,0.0,0,1,472,0.5
0.0,4.667560577392578,0.0,0,1,473,0.5
1.0,3.549614429473877,1.0,0,1,474,0.5
1.0,2.7445788383483887,1.0,0,1,475,0.5
1.0,2.258585214614868,1.0,0,1,476,0.5
1.0,2.458582639694214,1.0,0,1,477,0.5
1.0,2.8815832138061523,1.0,0,1,478,0.5
1.0,3.038590431213379,1.0,0,1,479,0.5
1.0,2.80057954788208,1.0,0,1,480,0.5
1.0,2.9625868797302246,1.0,0,1,481,0.5
1.0,2.6565799713134766,1.0,0,1,482,0.5
1.0,3.8556196689605713,0.0,0,1,483,0.5
1.0,4.07060432434082,1.0,0,1,484,0.5
1.0,2.736578941345215,1.0,0,1,485,0.5
1.0,2.3855834007263184,1.0,0,1,486,0.5
1.0,2.320584297180176,1.0,0,1,487,0.5
1.0,2.9145846366882324,1.0,0,1,488,0.5
0.0,2.274585008621216,0.0,0,1,489,0.5
1.0,2.8735828399658203,1.0,0,1,490,0.5
1.0,3.820622205734253,0.0,0,1,491,0.5
1.0,4.775552749633789,1.0,0,1,492,0.5
1.0,2.647580146789551,1.0,0,1,493,0.5
1.0,3.1075937747955322,1.0,0,1,494,0.5
1.0,2.794579029083252,0.0,0,1,495,0.5
1.0,2.5745811462402344,1.0,0,1,496,0.5
1.0,3.056591510772705,1.0,0,1,497,0.5
1.0,3.9116156101226807,1.0,0,1,498,0.5
1.0,3.1995980739593506,1.0,0,1,499,0.5
1.0,3.008589267730713,1.0,0,1,500,0.5
0.0,5.005536079406738,0.0,0,2,1,0.5
1.0,3.6166176795959473,0.0,0,2,2,0.5
0.0,5.285515785217285,0.0,0,2,3,0.5
0.0,3.091593027114868,0.0,0,2,4,0.5
0.0,3.2345995903015137,0.0,0,2,5,0.5
1.0,4.441576957702637,1.0,0,2,6,0.5
1.0,3.3526053428649902,1.0,0,2,7,0.5
1.0,2.308584451675415,0.0,0,2,8,0.5
1.0,3.340604782104492,1.0,0,2,9,0.5
1.0,2.1625864505767822,1.0,0,2,10,0.5
1.0,4.094602584838867,0.0,0,2,11,0.5
1.0,3.3976073265075684,0.0,0,2,12,0.5
1.0,3.3936071395874023,1.0,0,2,13,0.5
1.0,2.498582124710083,0.0,0,2,14,0.5
0.0,3.9396135807037354,0.0,0,2,15,0.5
1.0,3.7096219062805176,0.0,0,2,16,0.5
1.0,7.048388481140137,1.0,0,2,17,0.5
1.0,3.3986072540283203,0.0,0,2,18,0.5
1.0,3.4706106185913086,1.0,0,2,19,0.5
1.0,2.76857852935791,1.0,0,2,20,0.5
1.0,3.020589828491211,1.0,0,2,21,0.5
1.0,3.2285995483398438,0.0,0,2,22,0.5
1.0,2.6705799102783203,0.0,0,2,23,0.5
1.0,5.95946741104126,0.0,0,2,24,0.5
1.0,5.906471252441406,1.0,0,2,25,0.5
1.0,2.458582639694214,0.0,0,2,26,0.5
1.0,2.6215806007385254,1.0,0,2,27,0.5
0.0,2.8935837745666504,1.0,0,2,28,0.5
1.0,3.948612928390503,0.0,0,2,29,0.5
0.0,2.862582206726074,0.0,0,2,30,0.5
1.0,2.3805835247039795,1.0,0,2,31,0.5
1.0,3.523613214492798,0.0,0,2,32,0.5
1.0,5.9234700202941895,1.0,0,2,33,0.5
1.0,2.3335843086242676,1.0,0,2,34,0.5
1.0,2.2475852966308594,1.0,0,2,35,0.5
1.0,3.6496191024780273,0.0,0,2,36,0.5
0.0,2.7505788803100586,1.0,0,2,37,0.5
1.0,2.7525787353515625,1.0,0,2,38,0.5
0.0,3.614617347717285,0.0,0,2,39,0.5
1.0,4.288588523864746,1.0,0,2,40,0.5
1.0,4.544569969177246,0.0,0,2,41,0.5
0.0,4.828549385070801,0.0,0,2,42,0.5
1.0,3.6726202964782715,1.0,0,2,43,0.5
1.0,3.800623655319214,0.0,0,2,44,0.5
1.0,3.593616485595703,1.0,0,2,45,0.5
1.0,2.307584524154663,0.0,0,2,46,0.5
0.0,3.8346211910247803,0.0,0,2,47,0.5
1.0,2.459582567214966,1.0,0,2,48,0.5
1.0,3.4786109924316406,0.0,0,2,49,0.5
1.0,3.504612445831299,0.0,0,2,50,0.5
1.0,3.1815972328186035,1.0,0,2,51,0.5
1.0,4.855546951293945,1.0,0,2,52,0.5
1.0,2.6635799407958984,0.0,0,2,53,0.5
1.0,3.968611478805542,0.0,0,2,54,0.5
1.0,3.1205945014953613,1.0,0,2,55,0.5
1.0,2.8815832138061523,0.0,0,2,56,0.5
1.0,3.1945977210998535,0.0,0,2,57,0.5
0.0,4.8515472412109375,1.0,0,2,58,0.5
0.0,2.087587356567383,1.0,0,2,59,0.5
0.0,2.8405814170837402,1.0,0,2,60,0.5
0.0,2.4805822372436523,0.0,0,2,61,0.5
0.0,6.038461685180664,1.0,0,2,62,0.5
0.0,5.246519088745117,0.0,0,2,63,0.5
0.0,3.603616952896118,0.0,0,2,64,0.5
0.0,4.429577827453613,1.0,0,2,65,0.5
0.0,3.4786109924316406,1.0,0,2,66,0.5
0.0,2.4395828247070312,0.0,0,2,67,0.5
1.0,3.4476096630096436,1.0,0,2,68,0.5
1.0,4.319585800170898,1.0,0,2,69,0.5
0.0,2.135586738586426,1.0,0,2,70,0.5
1.0,3.4266085624694824,0.0,0,2,71,0.5
0.0,4.625563621520996,0.0,0,2,72,0.5
1.0,5.581494331359863,0.0,0,2,73,0.5
0.0,4.118600845336914,1.0,0,2,74,0.5
0.0,4.841547966003418,0.0,0,2,75,0.5
1.0,4.825549125671387,1.0,0,2,76,0.5
0.0,5.720484733581543,0.0,0,2,77,0.5
1.0,2.596580743789673,0.0,0,2,78,0.5
1.0,2.9415860176086426,0.0,0,2,79,0.5
1.0,2.7575788497924805,1.0,0,2,80,0.5
1.0,2.4725823402404785,1.0,0,2,81,0.5
1.0,3.013589382171631,1.0,0,2,82,0.5
1.0,2.5545814037323,1.0,0,2,83,0.5
1.0,2.58358097076416,1.0,0,2,84,0.5
1.0,2.3805835247039795,0.0,0,2,85,0.5
1.0,2.773578643798828,0.0,0,2,86,0.5
0.0,2.17858624458313,1.0,0,2,87,0.5
0.0,3.8996164798736572,0.0,0,2,88,0.5
0.0,3.4366092681884766,0.0,0,2,89,0.5
0.0,3.988610029220581,0.0,0,2,90,0.5
1.0,3.023589849472046,1.0,0,2,91,0.5
0.0,2.1495864391326904,1.0,0,2,92,0.5
0.0,3.4036076068878174,1.0,0,2,93,0.5
0.0,3.343604803085327,1.0,0,2,94,0.5
0.0,4.5785675048828125,1.0,0,2,95,0.5
1.0,4.050605773925781,0.0,0,2,96,0.5
0.0,2.6495800018310547,1.0,0,2,97,0.5
0.0,2.214585781097412,1.0,0,2,98,0.5
0.0,2.2005858421325684,0.0,0,2,99,0.5
0.0,3.31260347366333,1.0,0,2,100,0.5
0.0,2.9535865783691406,1.0,0,2,101,0.5
0.0,2.5535812377929688,1.0,0,2,102,0.5
0.0,3.2436001300811768,0.0,0,2,103,0.5
1.0,4.140599250793457,1.0,0,2,104,0.5
1.0,2.8405814170837402,0.0,0,2,105,0.5
0.0,3.301602840423584,1.0,0,2,106,0.5
0.0,3.4736108779907227,0.0,0,2,107,0.5
0.0,2.6545801162719727,1.0,0,2,108,0.5
0.0,2.6075806617736816,0.0,0,2,109,0.5
1.0,4.504572868347168,1.0,0,2,110,0.5
1.0,4.329585075378418,1.0,0,2,111,0.5
1.0,3.79862380027771,0.0,0,2,112,0.5
1.0,6.094457626342773,1.0,0,2,113,0.5
0.0,3.9596121311187744,0.0,0,2,114,0.5
1.0,2.3795835971832275,1.0,0,2,115,0.5
1.0,2.6495800018310547,0.0,0,2,116,0.5
0.0,6.04146146774292,1.0,0,2,117,0.5
0.0,2.446582794189453,1.0,0,2,118,0.5
1.0,3.951612710952759,0.0,0,2,119,0.5
0.0,2.171586275100708,0.0,0,2,120,0.5
1.0,5.265517234802246,1.0,0,2,121,0.5
1.0,4.869545936584473,0.0,0,2,122,0.5
0.0,3.986610174179077,0.0,0,2,123,0.5
1.0,5.808478355407715,1.0,0,2,124,0.5
1.0,6.202449798583984,0.0,0,2,125,0.5
0.0,2.4215831756591797,1.0,0,2,126,0.5
0.0,5.255517959594727,0.0,0,2,127,0.5
1.0,3.1155941486358643,1.0,0,2,128,0.5
1.0,2.4775824546813965,1.0,0,2,129,0.5
1.0,4.40757942199707,1.0,0,2,130,0.5
1.0,5.261517524719238,0.0,0,2,131,0.5
1.0,4.607564926147461,1.0,0,2,132,0.5
1.0,4.414579391479492,1.0,0,2,133,0.5
1.0,3.1915977001190186,1.0,0,2,134,0.5
1.0,2.673579692840576,0.0,0,2,135,0.5
0.0,3.001588821411133,1.0,0,2,136,0.5
0.0,3.015589475631714,1.0,0,2,137,0.5
1.0,2.4295830726623535,1.0,0,2,138,0.5
0.0,2.9405860900878906,0.0,0,2,139,0.5
0.0,2.828580856323242,0.0,0,2,140,0.5
1.0,4.4085798263549805,1.0,0,2,141,0.5
1.0,3.7266225814819336,0.0,0,2,142,0.5
1.0,4.24459171295166,1.0,0,2,143,0.5
0.0,2.646580219268799,0.0,0,2,144,0.5
1.0,2.7515788078308105,0.0,0,2,145,0.5
1.0,2.5795810222625732,0.0,0,2,146,0.5
0.0,2.2805848121643066,1.0,0,2,147,0.5
0.0,3.1155941486358643,1.0,0,2,148,0.5
0.0,3.949612855911255,0.0,0,2,149,0.5
0.0,5.629490852355957,1.0,0,2,150,0.5
0.0,3.558614730834961,0.0,0,2,151,0.5
1.0,2.3815836906433105,1.0,0,2,152,0.5
1.0,5.190523147583008,1.0,0,2,153,0.5
1.0,3.7126221656799316,0.0,0,2,154,0.5
0.0,6.025462627410889,1.0,0,2,155,0.5
0.0,4.508572578430176,0.0,0,2,156,0.5
0.0,4.310586929321289,0.0,0,2,157,0.5
0.0,3.314603328704834,1.0,0,2,158,0.5
0.0,2.2505853176116943,0.0,0,2,159,0.5
1.0,5.585494041442871,0.0,0,2,160,0.5
0.0,2.4395828247070312,1.0,0,2,161,0.5
0.0,2.495582103729248,0.0,0,2,162,0.5
0.0,4.935541152954102,0.0,0,2,163,0.5
0.0,4.447576522827148,1.0,0,2,164,0.5
0.0,3.355605363845825,1.0,0,2,165,0.5
0.0,2.163586378097534,1.0,0,2,166,0.5
0.0,2.2985846996307373,0.0,0,2,167,0.5
0.0,2.080587387084961,0.0,0,2,168,0.5
0.0,2.1125869750976562,1.0,0,2,169,0.5
0.0,2.171586275100708,1.0,0,2,170,0.5
0.0,2.3785836696624756,0.0,0,2,171,0.5
0.0,5.049532890319824,1.0,0,2,172,0.5
0.0,3.4906115531921387,1.0,0,2,173,0.5
0.0,3.2105984687805176,1.0,0,2,174,0.5
0.0,2.3285841941833496,0.0,0,2,175,0.5
0.0,2.546581506729126,0.0,0,2,176,0.5
1.0,4.507572174072266,0.0,0,2,177,0.5
1.0,5.989465236663818,0.0,0,2,178,0.5
0.0,2.6685798168182373,1.0,0,2,179,0.5
0.0,2.4795823097229004,1.0,0,2,180,0.5
0.0,1.9855879545211792,0.0,0,2,181,0.5
0.0,3.068592071533203,1.0,0,2,182,0.5
0.0,3.0965933799743652,0.0,0,2,183,0.5
1.0,2.7625787258148193,0.0,0,2,184,0.5
0.0,4.731555938720703,1.0,0,2,185,0.5
0.0,2.357583999633789,0.0,0,2,186,0.5
0.0,2.9585866928100586,1.0,0,2,187,0.5
0.0,3.1045937538146973,0.0,0,2,188,0.5
0.0,2.8935837745666504,1.0,0,2,189,0.5
0.0,2.2405853271484375,0.0,0,2,190,0.5
0.0,3.8966166973114014,0.0,0,2,191,0.5
1.0,2.9165849685668945,0.0,0,2,192,0.5
0.0,5.947468280792236,0.0,0,2,193,0.5
0.0,3.034590244293213,0.0,0,2,194,0.5
1.0,5.545496940612793,1.0,0,2,195,0.5
1.0,3.9356138706207275,0.0,0,2,196,0.5
0.0,3.1395952701568604,0.0,0,2,197,0.5
1.0,5.1125288009643555,0.0,0,2,198,0.5
0.0,3.1475956439971924,1.0,0,2,199,0.5
0.0,2.410583257675171,0.0,0,2,200,0.5
1.0,3.7006216049194336,1.0,0,2,201,0.5
1.0,3.589616298675537,1.0,0,2,202,0.5
1.0,3.027590036392212,0.0,0,2,203,0.5
1.0,2.7515788078308105,1.0,0,2,204,0.5
0.0,2.169586181640625,1.0,0,2,205,0.5
1.0,3.1215944290161133,0.0,0,2,206,0.5
0.0,6.226448059082031,0.0,0,2,207,0.5
0.0,2.4175829887390137,0.0,0,2,208,0.5
1.0,3.500612258911133,1.0,0,2,209,0.5
1.0,3.527613401412964,1.0,0,2,210,0.5
1.0,2.590580940246582,1.0,0,2,211,0.5
1.0,4.468575477600098,1.0,0,2,212,0.5
1.0,2.5305817127227783,0.0,0,2,213,0.5
0.0,3.085592746734619,0.0,0,2,214,0.5
0.0,4.616564750671387,0.0,0,2,215,0.5
0.0,3.6166176795959473,0.0,0,2,216,0.5
1.0,4.534570693969727,1.0,0,2,217,0.5
1.0,5.087530136108398,0.0,0,2,218,0.5
1.0,3.1285948753356934,1.0,0,2,219,0.5
1.0,3.2325997352600098,1.0,0,2,220,0.5
1.0,2.8935837745666504,0.0,0,2,221,0.5
0.0,2.077587366104126,0.0,0,2,222,0.5
1.0,2.9285855293273926,1.0,0,2,223,0.5
1.0,3.076592445373535,1.0,0,2,224,0.5
1.0,2.6115806102752686,1.0,0,2,225,0.5
1.0,2.6185805797576904,0.0,0,2,226,0.5
1.0,2.9005842208862305,0.0,0,2,227,0.5
1.0,2.6955795288085938,1.0,0,2,228,0.5
1.0,2.5305817127227783,0.0,0,2,229,0.5
1.0,2.9445862770080566,1.0,0,2,230,0.5
1.0,2.8835833072662354,1.0,0,2,231,0.5
1.0,3.040590763092041,0.0,0,2,232,0.5
1.0,2.6165804862976074,0.0,0,2,233,0.5
0.0,4.718557357788086,1.0,0,2,234,0.5
0.0,2.0035879611968994,0.0,0,2,235,0.5
0.0,3.9576122760772705,1.0,0,2,236,0.5
0.0,2.4705824851989746,0.0,0,2,237,0.5
0.0,7.218376159667969,1.0,0,2,238,0.5
0.0,2.591580867767334,1.0,0,2,239,0.5
0.0,3.354605197906494,1.0,0,2,240,0.5
0.0,2.6025807857513428,0.0,0,2,241,0.5
0.0,2.174586296081543,1.0,0,2,242,0.5
0.0,3.1175942420959473,0.0,0,2,243,0.5
0.0,4.07960319519043,1.0,0,2,244,0.5
0.0,2.3885834217071533,0.0,0,2,245,0.5
0.0,2.2815847396850586,1.0,0,2,246,0.5
0.0,2.6025807857513428,1.0,0,2,247,0.5
0.0,3.1755969524383545,0.0,0,2,248,0.5
0.0,2.792579174041748,1.0,0,2,249,0.5
0.0,2.9595868587493896,1.0,0,2,250,0.5
0.0,2.3925833702087402,1.0,0,2,251,0.5
0.0,2.3435840606689453,0.0,0,2,252,0.5
0.0,3.6906208992004395,0.0,0,2,253,0.5
1.0,5.579494476318359,1.0,0,2,254,0.5
1.0,2.724579095840454,0.0,0,2,255,0.5
1.0,3.6906208992004395,1.0,0,2,256,0.5
1.0,3.516613006591797,1.0,0,2,257,0.5
1.0,3.2025980949401855,0.0,0,2,258,0.5
1.0,4.140599250793457,0.0,0,2,259,0.5
0.0,4.92954158782959,0.0,0,2,260,0.5
0.0,2.5695810317993164,1.0,0,2,261,0.5
0.0,2.799579381942749,1.0,0,2,262,0.5
0.0,2.072587490081787,1.0,0,2,263,0.5
0.0,2.175586223602295,0.0,0,2,264,0.5
1.0,2.8905835151672363,0.0,0,2,265,0.5
0.0,2.1535863876342773,1.0,0,2,266,0.5
0.0,2.9905881881713867,0.0,0,2,267,0.5
0.0,4.524571418762207,0.0,0,2,268,0.5
0.0,2.6185805797576904,0.0,0,2,269,0.5
1.0,4.956540107727051,0.0,0,2,270,0.5
0.0,5.527498245239258,0.0,0,2,271,0.5
0.0,2.4695825576782227,0.0,0,2,272,0.5
0.0,2.161586284637451,0.0,0,2,273,0.5
0.0,2.401583194732666,1.0,0,2,274,0.5
0.0,2.5195817947387695,0.0,0,2,275,0.5
1.0,6.207449436187744,1.0,0,2,276,0.5
1.0,3.6566195487976074,0.0,0,2,277,0.5
1.0,5.547496795654297,1.0,0,2,278,0.5
1.0,5.1765241622924805,0.0,0,2,279,0.5
1.0,4.973538398742676,1.0,0,2,280,0.5
1.0,3.1235945224761963,0.0,0,2,281,0.5
1.0,2.9405860900878906,1.0,0,2,282,0.5
1.0,4.158597946166992,1.0,0,2,283,0.5
1.0,4.109601020812988,0.0,0,2,284,0.5
0.0,3.1695966720581055,1.0,0,2,285,0.5
0.0,7.197377681732178,0.0,0,2,286,0.5
0.0,6.294443130493164,0.0,0,2,287,0.5
1.0,3.1235945224761963,0.0,0,2,288,0.5
1.0,3.069591999053955,0.0,0,2,289,0.5
0.0,5.215520858764648,1.0,0,2,290,0.5
0.0,2.1055870056152344,0.0,0,2,291,0.5
0.0,2.9525866508483887,1.0,0,2,292,0.5
0.0,2.3275842666625977,0.0,0,2,293,0.5
0.0,3.6746201515197754,1.0,0,2,294,0.5
0.0,2.775578498840332,0.0,0,2,295,0.5
1.0,5.596493721008301,0.0,0,2,296,0.5
0.0,3.013589382171631,0.0,0,2,297,0.5
1.0,4.58156681060791,0.0,0,2,298,0.5
0.0,2.9495863914489746,0.0,0,2,299,0.5
1.0,2.209585666656494,0.0,0,2,300,0.5
0.0,4.045605659484863,0.0,0,2,301,0.5
0.0,2.3855834007263184,0.0,0,2,302,0.5
1.0,4.337584495544434,1.0,0,2,303,0.5
1.0,2.6235804557800293,0.0,0,2,304,0.5
1.0,6.573422908782959,1.0,0,2,305,0.5
1.0,3.7176222801208496,1.0,0,2,306,0.5
0.0,2.830580711364746,1.0,0,2,307,0.5
1.0,4.008608818054199,0.0,0,2,308,0.5
0.0,3.7346229553222656,1.0,0,2,309,0.5
0.0,2.821580410003662,0.0,0,2,310,0.5
1.0,4.939540863037109,0.0,0,2,311,0.5
0.0,2.2925846576690674,0.0,0,2,312,0.5
1.0,6.4764299392700195,0.0,0,2,313,0.5
0.0,2.169586181640625,0.0,0,2,314,0.5
0.0,3.4016075134277344,0.0,0,2,315,0.5
1.0,4.026607513427734,1.0,0,2,316,0.5
1.0,3.8536198139190674,1.0,0,2,317,0.5
1.0,3.011589288711548,1.0,0,2,318,0.5
1.0,2.7505788803100586,0.0,0,2,319,0.5
1.0,2.3825836181640625,1.0,0,2,320,0.5
1.0,2.632580280303955,0.0,0,2,321,0.5
1.0,4.307586669921875,1.0,0,2,322,0.5
1.0,4.092602729797363,1.0,0,2,323,0.5
1.0,3.523613214492798,0.0,0,2,324,0.5
1.0,3.033590316772461,1.0,0,2,325,0.5
1.0,4.389580726623535,0.0,0,2,326,0.5
0.0,2.6025807857513428,0.0,0,2,327,0.5
1.0,3.282601833343506,1.0,0,2,328,0.5
1.0,3.4626102447509766,0.0,0,2,329,0.5
1.0,2.6635799407958984,0.0,0,2,330,0.5
1.0,3.279601812362671,0.0,0,2,331,0.5
0.0,2.1995859146118164,0.0,0,2,332,0.5
0.0,2.729578971862793,0.0,0,2,333,0.5
1.0,4.7065582275390625,1.0,0,2,334,0.5
1.0,3.565615177154541,1.0,0,2,335,0.5
1.0,2.9755876064300537,0.0,0,2,336,0.5
1.0,2.316584348678589,0.0,0,2,337,0.5
0.0,3.610617160797119,0.0,0,2,338,0.5
1.0,3.1215944290161133,0.0,0,2,339,0.5
0.0,4.7655534744262695,1.0,0,2,340,0.5
0.0,3.573615550994873,0.0,0,2,341,0.5
0.0,3.507612466812134,1.0,0,2,342,0.5
0.0,3.7576241493225098,0.0,0,2,343,0.5
0.0,7.418361663818359,0.0,0,2,344,0.5
0.0,3.7666244506835938,0.0,0,2,345,0.5
0.0,3.7006216049194336,0.0,0,2,346,0.5
0.0,2.17258620262146,0.0,0,2,347,0.5
1.0,4.651561737060547,0.0,0,2,348,0.5
0.0,2.9125847816467285,0.0,0,2,349,0.5
0.0,6.716412544250488,0.0,0,2,350,0.5
0.0,4.28958797454834,0.0,0,2,351,0.5
1.0,3.7006216049194336,0.0,0,2,352,0.5
0.0,2.781578540802002,0.0,0,2,353,0.5
1.0,7.7153401374816895,1.0,0,2,354,0.5
1.0,2.78057861328125,1.0,0,2,355,0.5
1.0,2.489582061767578,0.0,0,2,356,0.5
1.0,3.1745967864990234,1.0,0,2,357,0.5
1.0,3.7896244525909424,1.0,0,2,358,0.5
1.0,2.6575798988342285,1.0,0,2,359,0.5
1.0,2.7145793437957764,1.0,0,2,360,0.5
1.0,2.4225831031799316,0.0,0,2,361,0.5
1.0,2.9035842418670654,1.0,0,2,362,0.5
1.0,3.816622495651245,0.0,0,2,363,0.5
1.0,5.495500564575195,1.0,0,2,364,0.5
1.0,2.6955795288085938,0.0,0,2,365,0.5
1.0,4.622564315795898,1.0,0,2,366,0.5
1.0,3.251600503921509,1.0,0,2,367,0.5
1.0,3.6786203384399414,1.0,0,2,368,0.5
1.0,3.6936211585998535,0.0,0,2,369,0.5
1.0,3.6336183547973633,0.0,0,2,370,0.5
0.0,3.3896069526672363,1.0,0,2,371,0.5
0.0,4.63856315612793,0.0,0,2,372,0.5
0.0,2.393583297729492,1.0,0,2,373,0.5
0.0,3.904616117477417,0.0,0,2,374,0.5
0.0,5.049532890319824,1.0,0,2,375,0.5
0.0,2.9705872535705566,1.0,0,2,376,0.5
0.0,2.691579580307007,1.0,0,2,377,0.5
0.0,3.074592113494873,0.0,0,2,378,0.5
0.0,3.569615364074707,0.0,0,2,379,0.5
0.0,2.5815811157226562,1.0,0,2,380,0.5
0.0,2.0895872116088867,0.0,0,2,381,0.5
0.0,2.4825823307037354,0.0,0,2,382,0.5
0.0,2.805579662322998,0.0,0,2,383,0.5
1.0,4.795551300048828,1.0,0,2,384,0.5
1.0,4.8565473556518555,1.0,0,2,385,0.5
1.0,4.047605514526367,0.0,0,2,386,0.5
1.0,4.2755889892578125,1.0,0,2,387,0.5
1.0,3.580615997314453,1.0,0,2,388,0.5
1.0,3.2425999641418457,1.0,0,2,389,0.5
1.0,2.7075793743133545,0.0,0,2,390,0.5
0.0,7.102384567260742,0.0,0,2,391,0.5
0.0,4.232592582702637,1.0,0,2,392,0.5
0.0,4.252591133117676,1.0,0,2,393,0.5
0.0,2.78057861328125,1.0,0,2,394,0.5
0.0,2.1445865631103516,0.0,0,2,395,0.5
1.0,5.579494476318359,0.0,0,2,396,0.5
0.0,6.08245849609375,1.0,0,2,397,0.5
0.0,2.724579095840454,0.0,0,2,398,0.5
1.0,2.735579013824463,0.0,0,2,399,0.5
0.0,2.5185818672180176,0.0,0,2,400,0.5
0.0,2.440582752227783,0.0,0,2,401,0.5
0.0,2.0015881061553955,1.0,0,2,402,0.5
0.0,3.9746110439300537,0.0,0,2,403,0.5
0.0,5.713484764099121,1.0,0,2,404,0.5
0.0,4.310586929321289,0.0,0,2,405,0.5
0.0,4.564568519592285,0.0,0,2,406,0.5
1.0,4.2115936279296875,1.0,0,2,407,0.5
1.0,3.843620538711548,1.0,0,2,408,0.5
0.0,3.7516238689422607,1.0,0,2,409,0.5
1.0,5.032534599304199,0.0,0,2,410,0.5
1.0,2.25358510017395,0.0,0,2,411,0.5
0.0,2.5695810317993164,0.0,0,2,412,0.5
0.0,2.413583278656006,0.0,0,2,413,0.5
0.0,3.3816065788269043,0.0,0,2,414,0.5
0.0,4.7655534744262695,0.0,0,2,415,0.5
1.0,3.942613363265991,1.0,0,2,416,0.5
1.0,3.3716061115264893,1.0,0,2,417,0.5
0.0,2.218585729598999,1.0,0,2,418,0.5
1.0,3.339604616165161,0.0,0,2,419,0.5
0.0,2.724579095840454,0.0,0,2,420,0.5
0.0,6.6894145011901855,0.0,0,2,421,0.5
1.0,2.599580764770508,0.0,0,2,422,0.5
1.0,3.1825971603393555,0.0,0,2,423,0.5
1.0,2.6035807132720947,1.0,0,2,424,0.5
1.0,3.2355997562408447,1.0,0,2,425,0.5
0.0,4.315586090087891,1.0,0,2,426,0.5
1.0,2.9945883750915527,0.0,0,2,427,0.5
0.0,2.838581085205078,1.0,0,2,428,0.5
0.0,2.834580898284912,0.0,0,2,429,0.5
0.0,2.850581645965576,1.0,0,2,430,0.5
0.0,2.226585626602173,0.0,0,2,431,0.5
1.0,4.885544776916504,1.0,0,2,432,0.5
0.0,2.1915860176086426,0.0,0,2,433,0.5
1.0,3.4476096630096436,0.0,0,2,434,0.5
0.0,4.043605804443359,1.0,0,2,435,0.5
0.0,2.0625877380371094,0.0,0,2,436,0.5
0.0,5.401507377624512,1.0,0,2,437,0.5
0.0,3.057591438293457,1.0,0,2,438,0.5
0.0,2.1055870056152344,0.0,0,2,439,0.5
0.0,2.5645811557769775,0.0,0,2,440,0.5
1.0,2.735579013824463,0.0,0,2,441,0.5
0.0,4.398580551147461,0.0,0,2,442,0.5
1.0,6.075459003448486,1.0,0,2,443,0.5
1.0,4.030607223510742,0.0,0,2,444,0.5
1.0,4.2975873947143555,1.0,0,2,445,0.5
1.0,3.546614170074463,1.0,0,2,446,0.5
1.0,2.0945873260498047,0.0,0,2,447,0.5
0.0,3.9156153202056885,0.0,0,2,448,0.5
1.0,2.8725829124450684,0.0,0,2,449,0.5
0.0,4.242591857910156,1.0,0,2,450,0.5
0.0,3.945613145828247,0.0,0,2,451,0.5
0.0,3.768624782562256,0.0,0,2,452,0.5
1.0,4.460576057434082,0.0,0,2,453,0.5
1.0,5.873473644256592,1.0,0,2,454,0.5
1.0,3.4676105976104736,0.0,0,2,455,0.5
0.0,4.827548980712891,0.0,0,2,456,0.5
0.0,3.1485958099365234,0.0,0,2,457,0.5
1.0,3.765624523162842,1.0,0,2,458,0.5
1.0,3.1695966720581055,0.0,0,2,459,0.5
1.0,5.009535789489746,1.0,0,2,460,0.5
1.0,2.4755823612213135,1.0,0,2,461,0.5
1.0,2.7505788803100586,0.0,0,2,462,0.5
1.0,2.6045806407928467,0.0,0,2,463,0.5
0.0,5.762481689453125,0.0,0,2,464,0.5
1.0,3.578615665435791,0.0,0,2,465,0.5
1.0,4.396580696105957,1.0,0,2,466,0.5
0.0,2.167586326599121,1.0,0,2,467,0.5
1.0,6.240447044372559,1.0,0,2,468,0.5
1.0,3.515612840652466,1.0,0,2,469,0.5
1.0,3.276601791381836,0.0,0,2,470,0.5
0.0,4.294588088989258,1.0,0,2,471,0.5
1.0,3.1955978870391846,0.0,0,2,472,0.5
0.0,2.2375853061676025,1.0,0,2,473,0.5
0.0,2.2295854091644287,0.0,0,2,474,0.5
0.0,4.302587509155273,0.0,0,2,475,0.5
0.0,2.212585687637329,0.0,0,2,476,0.5
1.0,5.099529266357422,1.0,0,2,477,0.5
0.0,2.1375865936279297,1.0,0,2,478,0.5
0.0,3.8526198863983154,0.0,0,2,479,0.5
1.0,3.88061785697937,0.0,0,2,480,0.5
0.0,3.1365952491760254,0.0,0,2,481,0.5
0.0,6.7124128341674805,1.0,0,2,482,0.5
0.0,2.0925872325897217,1.0,0,2,483,0.5
0.0,3.302602767944336,0.0,0,2,484,0.5
0.0,2.1865861415863037,0.0,0,2,485,0.5
1.0,5.039533615112305,0.0,0,2,486,0.5
1.0,4.008608818054199,1.0,0,2,487,0.5
1.0,4.80255126953125,0.0,0,2,488,0.5
1.0,3.114593982696533,0.0,0,2,489,0.5
1.0,5.4965009689331055,1.0,0,2,490,0.5
1.0,2.8945837020874023,1.0,0,2,491,0.5
1.0,3.6126174926757812,0.0,0,2,492,0.5
1.0,3.300602912902832,1.0,0,2,493,0.5
1.0,2.4395828247070312,0.0,0,2,494,0.5
1.0,4.506572723388672,1.0,0,2,495,0.5
1.0,2.9535865783691406,1.0,0,2,496,0.5
1.0,2.76857852935791,0.0,0,2,497,0.5
0.0,2.9865880012512207,0.0,0,2,498,0.5
1.0,3.2235991954803467,1.0,0,2,499,0.5
1.0,3.586616039276123,0.0,0,2,500,0.5
1.0,6.861504077911377,1.0,1,0,1,0.5
1.0,4.82965087890625,1.0,1,0,2,0.5
1.0,3.5897390842437744,1.0,1,0,3,0.5
1.0,2.74869966506958,0.0,1,0,4,0.5
0.0,3.288724899291992,0.0,1,0,5,0.5
1.0,4.251692771911621,1.0,1,0,6,0.5
0.0,4.592668056488037,0.0,1,0,7,0.5
1.0,4.736657619476318,0.0,1,0,8,0.5
0.0,3.6677350997924805,0.0,1,0,9,0.5
1.0,3.3947300910949707,1.0,1,0,10,0.5
1.0,2.732698917388916,1.0,1,0,11,0.5
1.0,4.3496856689453125,1.0,1,0,12,0.5
1.0,3.0547142028808594,1.0,1,0,13,0.5
1.0,2.8097026348114014,1.0,1,0,14,0.5
1.0,2.940708637237549,1.0,1,0,15,0.5
1.0,2.594693183898926,1.0,1,0,16,0.5
1.0,2.7667007446289062,1.0,1,0,17,0.5
1.0,2.998711585998535,1.0,1,0,18,0.5
1.0,2.3756959438323975,1.0,1,0,19,0.5
1.0,4.566669940948486,1.0,1,0,20,0.5
1.0,2.360696315765381,0.0,1,0,21,0.5
0.0,2.6226940155029297,0.0,1,0,22,0.5
1.0,3.695733070373535,1.0,1,0,23,0.5
1.0,2.918707847595215,1.0,1,0,24,0.5
1.0,2.5596935749053955,1.0,1,0,25,0.5
1.0,2.5976932048797607,1.0,1,0,26,0.5
1.0,2.676696300506592,1.0,1,0,27,0.5
1.0,2.5626935958862305,1.0,1,0,28,0.5
1.0,3.4337317943573,1.0,1,0,29,0.5
1.0,3.443732261657715,1.0,1,0,30,0.5
1.0,2.990711212158203,1.0,1,0,31,0.5
1.0,2.357696294784546,1.0,1,0,32,0.5
1.0,3.6877336502075195,1.0,1,0,33,0.5
0.0,2.11669921875,0.0,1,0,34,0.5
1.0,4.038708209991455,1.0,1,0,35,0.5
1.0,2.352696418762207,1.0,1,0,36,0.5
1.0,2.3676960468292236,1.0,1,0,37,0.5
1.0,2.692697048187256,0.0,1,0,38,0.5
1.0,4.460677623748779,1.0,1,0,39,0.5
1.0,2.942708969116211,1.0,1,0,40,0.5
1.0,2.545693874359131,1.0,1,0,41,0.5
1.0,2.6486949920654297,1.0,1,0,42,0.5
1.0,2.8607048988342285,1.0,1,0,43,0.5
1.0,3.024712562561035,1.0,1,0,44,0.5
1.0,2.060699939727783,1.0,1,0,45,0.5
1.0,2.262697458267212,1.0,1,0,46,0.5
1.0,3.2957253456115723,1.0,1,0,47,0.5
1.0,2.6096932888031006,1.0,1,0,48,0.5
1.0,3.1017162799835205,0.0,1,0,49,0.5
1.0,4.688661098480225,1.0,1,0,50,0.5
1.0,3.6407370567321777,1.0,1,0,51,0.5
1.0,3.678734302520752,1.0,1,0,52,0.5
1.0,1.886702299118042,0.0,1,0,53,0.5
1.0,3.630737781524658,1.0,1,0,54,0.5
1.0,3.6477365493774414,1.0,1,0,55,0.5
1.0,2.535693883895874,1.0,1,0,56,0.5
1.0,2.118699312210083,1.0,1,0,57,0.5
1.0,3.510735511779785,1.0,1,0,58,0.5
1.0,2.0467002391815186,1.0,1,0,59,0.5
1.0,3.3287267684936523,0.0,1,0,60,0.5
1.0,3.004711627960205,1.0,1,0,61,0.5
1.0,3.177719831466675,0.0,1,0,62,0.5
1.0,2.111699342727661,1.0,1,0,63,0.5
1.0,2.443695068359375,0.0,1,0,64,0.5
0.0,4.856648921966553,0.0,1,0,65,0.5
1.0,3.1767196655273438,1.0,1,0,66,0.5
1.0,3.0507140159606934,1.0,1,0,67,0.5
1.0,3.4077305793762207,1.0,1,0,68,0.5
1.0,3.0897157192230225,1.0,1,0,69,0.5
1.0,2.6346945762634277,1.0,1,0,70,0.5
1.0,2.033700466156006,1.0,1,0,71,0.5
1.0,3.269724130630493,1.0,1,0,72,0.5
1.0,2.5626935958862305,1.0,1,0,73,0.5
1.0,2.1746985912323,1.0,1,0,74,0.5
1.0,2.301697015762329,1.0,1,0,75,0.5
1.0,2.398695707321167,1.0,1,0,76,0.5
1.0,2.5036942958831787,1.0,1,0,77,0.5
1.0,2.4666948318481445,0.0,1,0,78,0.5
1.0,3.868720531463623,1.0,1,0,79,0.5
1.0,2.574693441390991,1.0,1,0,80,0.5
1.0,2.451694965362549,1.0,1,0,81,0.5
1.0,4.074705600738525,0.0,1,0,82,0.5
1.0,2.531693935394287,1.0,1,0,83,0.5
1.0,2.7917017936706543,1.0,1,0,84,0.5
1.0,2.8297035694122314,1.0,1,0,85,0.5
1.0,2.6476950645446777,1.0,1,0,86,0.5
1.0,2.451694965362549,1.0,1,0,87,0.5
1.0,3.0587143898010254,1.0,1,0,88,0.5
1.0,2.1006994247436523,1.0,1,0,89,0.5
1.0,3.3587284088134766,1.0,1,0,90,0.5
1.0,2.535693883895874,1.0,1,0,91,0.5
1.0,3.418731212615967,1.0,1,0,92,0.5
1.0,2.1886982917785645,0.0,1,0,93,0.5
1.0,4.960641384124756,1.0,1,0,94,0.5
1.0,2.68269681930542,1.0,1,0,95,0.5
1.0,2.496694564819336,1.0,1,0,96,0.5
1.0,2.7707009315490723,1.0,1,0,97,0.5
1.0,2.8477044105529785,1.0,1,0,98,0.5
1.0,2.8437042236328125,1.0,1,0,99,0.5
1.0,3.0787153244018555,1.0,1,0,100,0.5
1.0,2.693697214126587,0.0,1,0,101,0.5
1.0,4.61466646194458,1.0,1,0,102,0.5
1.0,4.226694583892822,1.0,1,0,103,0.5
1.0,4.448678493499756,1.0,1,0,104,0.5
1.0,3.9607138633728027,1.0,1,0,105,0.5
1.0,2.0587000846862793,1.0,1,0,106,0.5
1.0,2.081699848175049,1.0,1,0,107,0.5
1.0,2.5696935653686523,1.0,1,0,108,0.5
1.0,2.015700578689575,0.0,1,0,109,0.5
1.0,2.4276952743530273,1.0,1,0,110,0.5
1.0,2.763700485229492,1.0,1,0,111,0.5
1.0,2.8137028217315674,0.0,1,0,112,0.5
1.0,4.831650733947754,1.0,1,0,113,0.5
1.0,3.231722354888916,0.0,1,0,114,0.5
0.0,2.57969331741333,0.0,1,0,115,0.5
1.0,4.756656169891357,0.0,1,0,116,0.5
1.0,3.440732002258301,1.0,1,0,117,0.5
1.0,3.0547142028808594,1.0,1,0,118,0.5
1.0,2.0437002182006836,1.0,1,0,119,0.5
1.0,2.930708408355713,1.0,1,0,120,0.5
1.0,2.1406989097595215,1.0,1,0,121,0.5
1.0,2.8687052726745605,0.0,1,0,122,0.5
0.0,5.533599853515625,0.0,1,0,123,0.5
1.0,3.651736259460449,1.0,1,0,124,0.5
1.0,2.8867063522338867,1.0,1,0,125,0.5
1.0,2.7737009525299072,1.0,1,0,126,0.5
1.0,2.158698797225952,1.0,1,0,127,0.5
1.0,2.257697582244873,0.0,1,0,128,0.5
1.0,2.939708709716797,1.0,1,0,129,0.5
1.0,3.4257314205169678,1.0,1,0,130,0.5
1.0,2.2206978797912598,1.0,1,0,131,0.5
1.0,2.1796984672546387,1.0,1,0,132,0.5
1.0,3.6627354621887207,1.0,1,0,133,0.5
1.0,2.976710319519043,1.0,1,0,134,0.5
1.0,3.5677380561828613,1.0,1,0,135,0.5
1.0,4.155699729919434,0.0,1,0,136,0.5
1.0,5.833578586578369,1.0,1,0,137,0.5
1.0,4.122702121734619,1.0,1,0,138,0.5
1.0,2.5166940689086914,1.0,1,0,139,0.5
1.0,2.3326964378356934,1.0,1,0,140,0.5
1.0,2.219697952270508,1.0,1,0,141,0.5
1.0,3.00171160697937,1.0,1,0,142,0.5
1.0,2.969710111618042,1.0,1,0,143,0.5
1.0,2.0147006511688232,1.0,1,0,144,0.5
1.0,3.3067259788513184,1.0,1,0,145,0.5
1.0,3.9647135734558105,1.0,1,0,146,0.5
1.0,3.222722053527832,1.0,1,0,147,0.5
1.0,3.519735813140869,1.0,1,0,148,0.5
1.0,2.6046929359436035,1.0,1,0,149,0.5
1.0,2.3866958618164062,1.0,1,0,150,0.5
1.0,3.524735927581787,1.0,1,0,151,0.5
1.0,2.997711420059204,1.0,1,0,152,0.5
1.0,3.464733123779297,1.0,1,0,153,0.5
1.0,2.7977020740509033,1.0,1,0,154,0.5
1.0,2.221698045730591,1.0,1,0,155,0.5
1.0,3.825723648071289,1.0,1,0,156,0.5
1.0,3.696732997894287,1.0,1,0,157,0.5
1.0,3.229722261428833,1.0,1,0,158,0.5
1.0,2.7947020530700684,1.0,1,0,159,0.5
1.0,2.2306978702545166,1.0,1,0,160,0.5
1.0,2.2206978797912598,1.0,1,0,161,0.5
1.0,2.2386977672576904,1.0,1,0,162,0.5
1.0,2.6166934967041016,1.0,1,0,163,0.5
1.0,2.1506989002227783,1.0,1,0,164,0.5
1.0,2.4776947498321533,1.0,1,0,165,0.5
1.0,2.727698802947998,0.0,1,0,166,0.5
1.0,3.5417368412017822,1.0,1,0,167,0.5
1.0,2.2406978607177734,1.0,1,0,168,0.5
1.0,3.1157169342041016,1.0,1,0,169,0.5
1.0,2.3676960468292236,1.0,1,0,170,0.5
1.0,2.444694995880127,1.0,1,0,171,0.5
1.0,2.49869441986084,1.0,1,0,172,0.5
1.0,3.273724317550659,1.0,1,0,173,0.5
1.0,2.1926984786987305,1.0,1,0,174,0.5
1.0,2.731698989868164,1.0,1,0,175,0.5
1.0,2.176698684692383,1.0,1,0,176,0.5
1.0,3.242722988128662,1.0,1,0,177,0.5
1.0,2.67569637298584,1.0,1,0,178,0.5
1.0,2.166698694229126,0.0,1,0,179,0.5
1.0,2.987710952758789,1.0,1,0,180,0.5
1.0,3.264723777770996,0.0,1,0,181,0.5
1.0,3.997711181640625,1.0,1,0,182,0.5
1.0,2.919707775115967,1.0,1,0,183,0.5
1.0,3.699732780456543,1.0,1,0,184,0.5
1.0,2.5236940383911133,1.0,1,0,185,0.5
1.0,2.301697015762329,1.0,1,0,186,0.5
1.0,2.251697540283203,1.0,1,0,187,0.5
1.0,3.503735065460205,1.0,1,0,188,0.5
1.0,2.482694625854492,1.0,1,0,189,0.5
1.0,2.784701347351074,0.0,1,0,190,0.5
1.0,2.929708242416382,1.0,1,0,191,0.5
1.0,3.199720859527588,0.0,1,0,192,0.5
1.0,4.424680233001709,1.0,1,0,193,0.5
1.0,3.47373366355896,1.0,1,0,194,0.5
1.0,2.8317036628723145,1.0,1,0,195,0.5
1.0,2.3786959648132324,1.0,1,0,196,0.5
1.0,2.3396964073181152,1.0,1,0,197,0.5
1.0,4.151700019836426,1.0,1,0,198,0.5
1.0,2.2466976642608643,1.0,1,0,199,0.5
1.0,2.114699363708496,0.0,1,0,200,0.5
1.0,3.0847153663635254,0.0,1,0,201,0.5
1.0,4.8186516761779785,1.0,1,0,202,0.5
1.0,5.319615364074707,1.0,1,0,203,0.5
1.0,3.6707348823547363,1.0,1,0,204,0.5
1.0,2.541693925857544,0.0,1,0,205,0.5
1.0,4.012710094451904,1.0,1,0,206,0.5
1.0,3.505735158920288,0.0,1,0,207,0.5
1.0,4.531672477722168,0.0,1,0,208,0.5
0.0,4.773654937744141,0.0,1,0,209,0.5
1.0,3.499734878540039,1.0,1,0,210,0.5
1.0,3.258723735809326,1.0,1,0,211,0.5
1.0,3.3947300910949707,1.0,1,0,212,0.5
1.0,2.442695140838623,1.0,1,0,213,0.5
1.0,2.5526938438415527,1.0,1,0,214,0.5
1.0,2.247697591781616,1.0,1,0,215,0.5
1.0,1.9407016038894653,1.0,1,0,216,0.5
1.0,3.4157309532165527,1.0,1,0,217,0.5
1.0,3.458733081817627,1.0,1,0,218,0.5
1.0,2.8877062797546387,0.0,1,0,219,0.5
1.0,3.273724317550659,1.0,1,0,220,0.5
1.0,2.957709550857544,1.0,1,0,221,0.5
1.0,3.250723361968994,1.0,1,0,222,0.5
1.0,2.5626935958862305,1.0,1,0,223,0.5
1.0,2.692697048187256,1.0,1,0,224,0.5
1.0,2.8127026557922363,1.0,1,0,225,0.5
1.0,2.5716934204101562,1.0,1,0,226,0.5
1.0,2.6306943893432617,1.0,1,0,227,0.5
1.0,2.4226953983306885,1.0,1,0,228,0.5
0.0,2.217698097229004,0.0,1,0,229,0.5
1.0,5.755584239959717,0.0,1,0,230,0.5
1.0,4.677661895751953,0.0,1,0,231,0.5
1.0,2.3356964588165283,1.0,1,0,232,0.5
1.0,4.4126811027526855,1.0,1,0,233,0.5
1.0,3.011712074279785,1.0,1,0,234,0.5
1.0,3.763728141784668,1.0,1,0,235,0.5
1.0,2.6386947631835938,1.0,1,0,236,0.5
1.0,2.491694450378418,1.0,1,0,237,0.5
1.0,2.959709644317627,1.0,1,0,238,0.5
1.0,2.353696346282959,1.0,1,0,239,0.5
1.0,2.535693883895874,0.0,1,0,240,0.5
1.0,4.436679363250732,1.0,1,0,241,0.5
1.0,3.952714443206787,1.0,1,0,242,0.5
1.0,2.301697015762329,1.0,1,0,243,0.5
1.0,3.003711700439453,1.0,1,0,244,0.5
1.0,3.934715747833252,1.0,1,0,245,0.5
1.0,2.07069993019104,1.0,1,0,246,0.5
1.0,2.541693925857544,1.0,1,0,247,0.5
1.0,3.4287314414978027,1.0,1,0,248,0.5
1.0,2.5626935958862305,1.0,1,0,249,0.5
1.0,2.2306978702545166,1.0,1,0,250,0.5
1.0,2.784701347351074,1.0,1,0,251,0.5
1.0,3.456732749938965,1.0,1,0,252,0.5
1.0,2.4706947803497314,1.0,1,0,253,0.5
1.0,2.399695634841919,0.0,1,0,254,0.5
1.0,3.1217172145843506,0.0,1,0,255,0.5
1.0,3.9417152404785156,1.0,1,0,256,0.5
1.0,4.214695453643799,1.0,1,0,257,0.5
1.0,2.7787013053894043,1.0,1,0,258,0.5
1.0,2.6356945037841797,1.0,1,0,259,0.5
1.0,4.724658489227295,1.0,1,0,260,0.5
1.0,2.076699733734131,1.0,1,0,261,0.5
1.0,2.1366991996765137,1.0,1,0,262,0.5
1.0,3.1557188034057617,1.0,1,0,263,0.5
1.0,3.9067177772521973,1.0,1,0,264,0.5
1.0,2.0926995277404785,1.0,1,0,265,0.5
1.0,5.038635730743408,1.0,1,0,266,0.5
1.0,2.3186967372894287,1.0,1,0,267,0.5
0.0,2.0836997032165527,0.0,1,0,268,0.5
1.0,3.532736301422119,0.0,1,0,269,0.5
1.0,2.712697982788086,0.0,1,0,270,0.5
1.0,2.11669921875,1.0,1,0,271,0.5
1.0,4.86564826965332,1.0,1,0,272,0.5
1.0,2.303696870803833,1.0,1,0,273,0.5
1.0,3.3977301120758057,1.0,1,0,274,0.5
1.0,4.419680595397949,1.0,1,0,275,0.5
1.0,3.3647284507751465,1.0,1,0,276,0.5
1.0,3.8597211837768555,1.0,1,0,277,0.5
1.0,1.935701608657837,1.0,1,0,278,0.5
1.0,2.2446975708007812,1.0,1,0,279,0.5
1.0,2.0956995487213135,1.0,1,0,280,0.5
1.0,3.5877389907836914,1.0,1,0,281,0.5
1.0,2.6336944103240967,1.0,1,0,282,0.5
1.0,3.3667287826538086,0.0,1,0,283,0.5
1.0,2.6016931533813477,0.0,1,0,284,0.5
0.0,2.8047022819519043,0.0,1,0,285,0.5
1.0,3.215721607208252,1.0,1,0,286,0.5
1.0,2.488694667816162,1.0,1,0,287,0.5
1.0,2.5126943588256836,1.0,1,0,288,0.5
1.0,3.0567140579223633,1.0,1,0,289,0.5
1.0,2.584693431854248,1.0,1,0,290,0.5
1.0,3.1387181282043457,1.0,1,0,291,0.5
1.0,2.5596935749053955,0.0,1,0,292,0.5
1.0,4.428679943084717,1.0,1,0,293,0.5
1.0,3.5637378692626953,1.0,1,0,294,0.5
1.0,2.434695243835449,1.0,1,0,295,0.5
1.0,2.983710765838623,0.0,1,0,296,0.5
1.0,3.4327316284179688,1.0,1,0,297,0.5
1.0,2.960709571838379,1.0,1,0,298,0.5
1.0,2.1476988792419434,0.0,1,0,299,0.5
1.0,4.8836469650268555,1.0,1,0,300,0.5
1.0,3.3007254600524902,1.0,1,0,301,0.5
1.0,3.1377179622650146,0.0,1,0,302,0.5
1.0,3.7957258224487305,1.0,1,0,303,0.5
1.0,2.8107028007507324,1.0,1,0,304,0.5
1.0,2.8087024688720703,1.0,1,0,305,0.5
1.0,4.889646530151367,1.0,1,0,306,0.5
1.0,3.9927115440368652,1.0,1,0,307,0.5
1.0,2.546693801879883,0.0,1,0,308,0.5
1.0,3.6027398109436035,0.0,1,0,309,0.5
0.0,5.668590545654297,0.0,1,0,310,0.5
1.0,2.7937018871307373,1.0,1,0,311,0.5
1.0,2.2436976432800293,0.0,1,0,312,0.5
1.0,2.745699644088745,0.0,1,0,313,0.5
0.0,3.681734085083008,0.0,1,0,314,0.5
1.0,4.424680233001709,1.0,1,0,315,0.5
1.0,2.4216954708099365,1.0,1,0,316,0.5
1.0,3.0847153663635254,1.0,1,0,317,0.5
1.0,2.3626961708068848,1.0,1,0,318,0.5
1.0,3.465733289718628,1.0,1,0,319,0.5
1.0,3.8557214736938477,1.0,1,0,320,0.5
1.0,2.73569917678833,0.0,1,0,321,0.5
1.0,3.6697349548339844,1.0,1,0,322,0.5
1.0,2.721698522567749,1.0,1,0,323,0.5
1.0,3.166719436645508,1.0,1,0,324,0.5
1.0,2.997711420059204,1.0,1,0,325,0.5
1.0,2.3866958618164062,1.0,1,0,326,0.5
1.0,3.5517373085021973,1.0,1,0,327,0.5
1.0,2.2296979427337646,0.0,1,0,328,0.5
1.0,3.957714080810547,1.0,1,0,329,0.5
1.0,3.3327269554138184,1.0,1,0,330,0.5
1.0,3.3217265605926514,1.0,1,0,331,0.5
1.0,4.181697845458984,1.0,1,0,332,0.5
1.0,2.8077025413513184,1.0,1,0,333,0.5
1.0,1.8207025527954102,0.0,1,0,334,0.5
1.0,6.071561336517334,1.0,1,0,335,0.5
1.0,2.7787013053894043,1.0,1,0,336,0.5
1.0,2.2376978397369385,1.0,1,0,337,0.5
1.0,2.207698106765747,1.0,1,0,338,0.5
1.0,3.000711441040039,1.0,1,0,339,0.5
1.0,2.66269588470459,1.0,1,0,340,0.5
1.0,2.3356964588165283,1.0,1,0,341,0.5
1.0,3.3777291774749756,1.0,1,0,342,0.5
1.0,2.404695510864258,1.0,1,0,343,0.5
1.0,3.5607376098632812,0.0,1,0,344,0.5
1.0,3.673734664916992,1.0,1,0,345,0.5
1.0,2.910707473754883,0.0,1,0,346,0.5
1.0,3.0697147846221924,1.0,1,0,347,0.5
1.0,5.133628845214844,1.0,1,0,348,0.5
1.0,4.272691249847412,1.0,1,0,349,0.5
1.0,2.4666948318481445,1.0,1,0,350,0.5
1.0,2.8707056045532227,1.0,1,0,351,0.5
1.0,2.348696231842041,1.0,1,0,352,0.5
1.0,2.1436989307403564,1.0,1,0,353,0.5
1.0,2.3266966342926025,1.0,1,0,354,0.5
1.0,3.510735511779785,1.0,1,0,355,0.5
1.0,3.0967159271240234,1.0,1,0,356,0.5
1.0,2.9037070274353027,1.0,1,0,357,0.5
1.0,2.999711513519287,0.0,1,0,358,0.5
1.0,3.2747244834899902,1.0,1,0,359,0.5
1.0,2.8707056045532227,1.0,1,0,360,0.5
1.0,2.997711420059204,1.0,1,0,361,0.5
1.0,2.66269588470459,1.0,1,0,362,0.5
1.0,3.852721691131592,1.0,1,0,363,0.5
1.0,3.0337131023406982,1.0,1,0,364,0.5
1.0,2.2686972618103027,0.0,1,0,365,0.5
1.0,2.2446975708007812,1.0,1,0,366,0.5
1.0,3.870720386505127,1.0,1,0,367,0.5
1.0,4.464677333831787,1.0,1,0,368,0.5
1.0,2.2406978607177734,1.0,1,0,369,0.5
0.0,2.4266953468322754,0.0,1,0,370,0.5
1.0,2.538693904876709,1.0,1,0,371,0.5
1.0,3.3727288246154785,0.0,1,0,372,0.5
1.0,2.589693307876587,1.0,1,0,373,0.5
1.0,3.5497372150421143,1.0,1,0,374,0.5
1.0,2.543693780899048,1.0,1,0,375,0.5
1.0,2.976710319519043,1.0,1,0,376,0.5
1.0,2.8717055320739746,1.0,1,0,377,0.5
1.0,2.4156954288482666,1.0,1,0,378,0.5
1.0,2.3376965522766113,1.0,1,0,379,0.5
1.0,4.487675666809082,1.0,1,0,380,0.5
1.0,3.5307364463806152,1.0,1,0,381,0.5
1.0,2.5996930599212646,1.0,1,0,382,0.5
1.0,2.5056943893432617,1.0,1,0,383,0.5
1.0,3.2947254180908203,1.0,1,0,384,0.5
1.0,2.577693462371826,1.0,1,0,385,0.5
1.0,4.190697193145752,1.0,1,0,386,0.5
1.0,2.942708969116211,1.0,1,0,387,0.5
1.0,3.49373459815979,0.0,1,0,388,0.5
1.0,3.3847293853759766,1.0,1,0,389,0.5
1.0,3.177719831466675,1.0,1,0,390,0.5
1.0,2.70269775390625,1.0,1,0,391,0.5
1.0,3.17471981048584,1.0,1,0,392,0.5
1.0,3.1417181491851807,1.0,1,0,393,0.5
1.0,4.15369987487793,1.0,1,0,394,0.5
1.0,5.040635585784912,1.0,1,0,395,0.5
1.0,2.4186954498291016,1.0,1,0,396,0.5
1.0,2.710698127746582,1.0,1,0,397,0.5
1.0,2.5236940383911133,1.0,1,0,398,0.5
1.0,2.8557047843933105,1.0,1,0,399,0.5
1.0,2.586693286895752,1.0,1,0,400,0.5
1.0,3.221721887588501,1.0,1,0,401,0.5
1.0,1.9847010374069214,1.0,1,0,402,0.5
1.0,2.5966930389404297,1.0,1,0,403,0.5
1.0,2.267697334289551,1.0,1,0,404,0.5
1.0,3.266724109649658,1.0,1,0,405,0.5
1.0,2.484694480895996,1.0,1,0,406,0.5
1.0,3.249723196029663,1.0,1,0,407,0.5
1.0,2.398695707321167,1.0,1,0,408,0.5
1.0,2.936708450317383,1.0,1,0,409,0.5
1.0,2.2946970462799072,1.0,1,0,410,0.5
1.0,3.0577142238616943,1.0,1,0,411,0.5
1.0,2.340696334838867,1.0,1,0,412,0.5
1.0,2.345696449279785,1.0,1,0,413,0.5
1.0,3.1577188968658447,1.0,1,0,414,0.5
1.0,2.6576955318450928,1.0,1,0,415,0.5
1.0,2.6126933097839355,1.0,1,0,416,0.5
1.0,2.5246939659118652,1.0,1,0,417,0.5
1.0,2.772700786590576,1.0,1,0,418,0.5
1.0,3.0937159061431885,1.0,1,0,419,0.5
1.0,2.8207030296325684,1.0,1,0,420,0.5
1.0,3.249723196029663,1.0,1,0,421,0.5
1.0,2.545693874359131,1.0,1,0,422,0.5
1.0,3.830723285675049,1.0,1,0,423,0.5
1.0,2.3266966342926025,1.0,1,0,424,0.5
1.0,3.266724109649658,0.0,1,0,425,0.5
1.0,2.676696300506592,1.0,1,0,426,0.5
1.0,3.652736186981201,1.0,1,0,427,0.5
1.0,2.743699550628662,1.0,1,0,428,0.5
1.0,2.7997021675109863,1.0,1,0,429,0.5
1.0,2.5716934204101562,0.0,1,0,430,0.5
0.0,3.3907299041748047,0.0,1,0,431,0.5
1.0,2.8047022819519043,1.0,1,0,432,0.5
1.0,2.1306991577148438,1.0,1,0,433,0.5
1.0,2.210698127746582,0.0,1,0,434,0.5
1.0,2.986711025238037,0.0,1,0,435,0.5
1.0,6.0595622062683105,0.0,1,0,436,0.5
0.0,2.973710298538208,0.0,1,0,437,0.5
0.0,2.8017022609710693,1.0,1,0,438,0.5
0.0,3.0347132682800293,0.0,1,0,439,0.5
0.0,3.20772123336792,0.0,1,0,440,0.5
1.0,5.263619422912598,1.0,1,0,441,0.5
1.0,4.06170654296875,1.0,1,0,442,0.5
1.0,3.444732189178467,1.0,1,0,443,0.5
1.0,2.8917064666748047,1.0,1,0,444,0.5
1.0,2.701697587966919,1.0,1,0,445,0.5
1.0,2.4256954193115234,1.0,1,0,446,0.5
1.0,2.1026995182037354,1.0,1,0,447,0.5
1.0,2.934708595275879,1.0,1,0,448,0.5
0.0,3.00171160697937,0.0,1,0,449,0.5
1.0,2.572693347930908,0.0,1,0,450,0.5
1.0,3.1227173805236816,1.0,1,0,451,0.5
1.0,4.017709732055664,1.0,1,0,452,0.5
1.0,3.195720672607422,1.0,1,0,453,0.5
1.0,2.4276952743530273,0.0,1,0,454,0.5
1.0,5.019637107849121,1.0,1,0,455,0.5
1.0,3.498734951019287,1.0,1,0,456,0.5
1.0,2.405695676803589,0.0,1,0,457,0.5
1.0,4.377683639526367,1.0,1,0,458,0.5
1.0,2.3336966037750244,1.0,1,0,459,0.5
1.0,2.298696994781494,1.0,1,0,460,0.5
1.0,2.7667007446289062,1.0,1,0,461,0.5
1.0,3.000711441040039,1.0,1,0,462,0.5
1.0,2.8667054176330566,1.0,1,0,463,0.5
1.0,2.769700765609741,1.0,1,0,464,0.5
1.0,3.3037257194519043,1.0,1,0,465,0.5
1.0,3.0777151584625244,1.0,1,0,466,0.5
1.0,3.2857248783111572,1.0,1,0,467,0.5
1.0,4.039708137512207,0.0,1,0,468,0.5
1.0,2.587693214416504,0.0,1,0,469,0.5
0.0,7.002493858337402,0.0,1,0,470,0.5
1.0,2.8907065391540527,1.0,1,0,471,0.5
1.0,3.517735719680786,1.0,1,0,472,0.5
1.0,4.026709079742432,1.0,1,0,473,0.5
1.0,2.674696445465088,1.0,1,0,474,0.5
1.0,3.20072078704834,0.0,1,0,475,0.5
1.0,3.5927391052246094,1.0,1,0,476,0.5
1.0,2.681696653366089,1.0,1,0,477,0.5
1.0,2.594693183898926,0.0,1,0,478,0.5
0.0,3.9217166900634766,0.0,1,0,479,0.5
1.0,3.51373553276062,0.0,1,0,480,0.5
1.0,2.6116933822631836,1.0,1,0,481,0.5
1.0,2.937708616256714,1.0,1,0,482,0.5
1.0,3.1427183151245117,0.0,1,0,483,0.5
1.0,5.242620944976807,1.0,1,0,484,0.5
1.0,2.7837014198303223,1.0,1,0,485,0.5
1.0,4.130701541900635,1.0,1,0,486,0.5
1.0,2.5286941528320312,0.0,1,0,487,0.5
1.0,4.355685234069824,0.0,1,0,488,0.5
1.0,3.8797197341918945,1.0,1,0,489,0.5
1.0,2.531693935394287,1.0,1,0,490,0.5
1.0,2.914707660675049,1.0,1,0,491,0.5
1.0,3.1137168407440186,1.0,1,0,492,0.5
1.0,2.3196966648101807,1.0,1,0,493,0.5
1.0,2.5116941928863525,1.0,1,0,494,0.5
1.0,2.740699291229248,1.0,1,0,495,0.5
1.0,2.3716959953308105,1.0,1,0,496,0.5
1.0,3.9017181396484375,1.0,1,0,497,0.5
1.0,2.935708522796631,1.0,1,0,498,0.5
1.0,2.1006994247436523,1.0,1,0,499,0.5
1.0,4.963641166687012,1.0,1,0,500,0.5
0.0,2.8117027282714844,0.0,1,1,1,0.5
1.0,4.127701759338379,1.0,1,1,2,0.5
1.0,2.300696849822998,1.0,1,1,3,0.5
1.0,3.479733943939209,1.0,1,1,4,0.5
1.0,2.2816972732543945,1.0,1,1,5,0.5
1.0,2.6076931953430176,1.0,1,1,6,0.5
1.0,2.435695171356201,0.0,1,1,7,0.5
1.0,4.055706977844238,1.0,1,1,8,0.5
1.0,3.040713310241699,1.0,1,1,9,0.5
1.0,4.031708717346191,1.0,1,1,10,0.5
1.0,3.1697194576263428,1.0,1,1,11,0.5
1.0,2.9137074947357178,1.0,1,1,12,0.5
1.0,3.3237266540527344,1.0,1,1,13,0.5
1.0,2.709697961807251,1.0,1,1,14,0.5
1.0,2.4216954708099365,1.0,1,1,15,0.5
1.0,2.6226940155029297,0.0,1,1,16,0.5
1.0,3.782726764678955,1.0,1,1,17,0.5
1.0,5.0526347160339355,1.0,1,1,18,0.5
1.0,2.8827061653137207,1.0,1,1,19,0.5
1.0,3.2907252311706543,0.0,1,1,20,0.5
0.0,3.781726837158203,1.0,1,1,21,0.5
0.0,2.5696935653686523,0.0,1,1,22,0.5
0.0,5.539599418640137,0.0,1,1,23,0.5
1.0,3.809724807739258,1.0,1,1,24,0.5
1.0,3.1317176818847656,0.0,1,1,25,0.5
1.0,4.311688423156738,1.0,1,1,26,0.5
1.0,3.504734992980957,0.0,1,1,27,0.5
1.0,2.6456949710845947,1.0,1,1,28,0.5
1.0,3.0217125415802,1.0,1,1,29,0.5
1.0,3.284724712371826,0.0,1,1,30,0.5
0.0,2.4686946868896484,0.0,1,1,31,0.5
1.0,3.441732168197632,1.0,1,1,32,0.5
1.0,4.273691177368164,1.0,1,1,33,0.5
1.0,2.996711254119873,0.0,1,1,34,0.5
1.0,2.0956995487213135,1.0,1,1,35,0.5
1.0,2.4286952018737793,1.0,1,1,36,0.5
1.0,2.8757057189941406,1.0,1,1,37,0.5
1.0,2.663695812225342,1.0,1,1,38,0.5
1.0,2.575693368911743,0.0,1,1,39,0.5
1.0,3.019712448120117,0.0,1,1,40,0.5
1.0,4.8406500816345215,0.0,1,1,41,0.5
1.0,2.5056943893432617,0.0,1,1,42,0.5
1.0,5.494602680206299,1.0,1,1,43,0.5
1.0,4.986639499664307,0.0,1,1,44,0.5
0.0,2.8017022609710693,0.0,1,1,45,0.5
1.0,4.325687408447266,1.0,1,1,46,0.5
1.0,3.868720531463623,1.0,1,1,47,0.5
1.0,2.701697587966919,1.0,1,1,48,0.5
1.0,2.72869873046875,1.0,1,1,49,0.5
1.0,3.3267269134521484,1.0,1,1,50,0.5
1.0,2.9117074012756348,0.0,1,1,51,0.5
1.0,6.506529808044434,1.0,1,1,52,0.5
1.0,3.243722915649414,0.0,1,1,53,0.5
1.0,6.015565395355225,0.0,1,1,54,0.5
0.0,2.443695068359375,1.0,1,1,55,0.5
0.0,2.4786946773529053,0.0,1,1,56,0.5
0.0,1.8947021961212158,0.0,1,1,57,0.5
0.0,3.715731620788574,0.0,1,1,58,0.5
1.0,2.991711139678955,1.0,1,1,59,0.5
1.0,2.348696231842041,1.0,1,1,60,0.5
1.0,4.0727057456970215,1.0,1,1,61,0.5
1.0,2.995711326599121,1.0,1,1,62,0.5
1.0,2.8987069129943848,1.0,1,1,63,0.5
1.0,2.449695110321045,0.0,1,1,64,0.5
1.0,2.3396964073181152,1.0,1,1,65,0.5
1.0,2.9137074947357178,0.0,1,1,66,0.5
1.0,3.824723720550537,1.0,1,1,67,0.5
1.0,4.085704803466797,0.0,1,1,68,0.5
1.0,3.5827388763427734,1.0,1,1,69,0.5
1.0,2.5606937408447266,0.0,1,1,70,0.5
1.0,4.081705093383789,0.0,1,1,71,0.5
0.0,5.873575687408447,0.0,1,1,72,0.5
0.0,3.4217312335968018,1.0,1,1,73,0.5
0.0,2.4216954708099365,0.0,1,1,74,0.5
0.0,3.6467366218566895,1.0,1,1,75,0.5
0.0,2.583693265914917,0.0,1,1,76,0.5
1.0,3.45373272895813,1.0,1,1,77,0.5
1.0,2.4136955738067627,1.0,1,1,78,0.5
1.0,2.3276965618133545,0.0,1,1,79,0.5
0.0,4.615666389465332,1.0,1,1,80,0.5
0.0,3.0637145042419434,0.0,1,1,81,0.5
0.0,4.416680812835693,0.0,1,1,82,0.5
0.0,4.465677261352539,1.0,1,1,83,0.5
0.0,4.075705528259277,0.0,1,1,84,0.5
1.0,4.516673564910889,1.0,1,1,85,0.5
1.0,2.998711585998535,1.0,1,1,86,0.5
1.0,3.801725387573242,1.0,1,1,87,0.5
1.0,4.728658199310303,1.0,1,1,88,0.5
1.0,3.0677146911621094,1.0,1,1,89,0.5
1.0,2.499694347381592,1.0,1,1,90,0.5
1.0,2.435695171356201,0.0,1,1,91,0.5
0.0,3.724730968475342,1.0,1,1,92,0.5
0.0,3.2867250442504883,0.0,1,1,93,0.5
1.0,3.032712936401367,1.0,1,1,94,0.5
1.0,4.383683204650879,0.0,1,1,95,0.5
1.0,4.941642761230469,1.0,1,1,96,0.5
1.0,4.553670883178711,0.0,1,1,97,0.5
1.0,3.9187169075012207,0.0,1,1,98,0.5
0.0,1.8967021703720093,0.0,1,1,99,0.5
0.0,2.490694522857666,0.0,1,1,100,0.5
1.0,2.391695737838745,1.0,1,1,101,0.5
1.0,2.3706960678100586,1.0,1,1,102,0.5
1.0,2.9247078895568848,1.0,1,1,103,0.5
1.0,2.8177030086517334,1.0,1,1,104,0.5
1.0,3.004711627960205,0.0,1,1,105,0.5
1.0,3.2787246704101562,1.0,1,1,106,0.5
1.0,2.7837014198303223,1.0,1,1,107,0.5
1.0,5.326614856719971,0.0,1,1,108,0.5
0.0,5.227622032165527,0.0,1,1,109,0.5
1.0,3.3927297592163086,1.0,1,1,110,0.5
1.0,4.113702774047852,1.0,1,1,111,0.5
1.0,2.2456977367401123,1.0,1,1,112,0.5
1.0,1.9767011404037476,1.0,1,1,113,0.5
1.0,2.689697027206421,0.0,1,1,114,0.5
1.0,4.3486857414245605,1.0,1,1,115,0.5
1.0,4.389682769775391,1.0,1,1,116,0.5
1.0,2.732698917388916,1.0,1,1,117,0.5
1.0,5.451605796813965,1.0,1,1,118,0.5
1.0,3.1567187309265137,1.0,1,1,119,0.5
1.0,3.3427276611328125,0.0,1,1,120,0.5
1.0,5.881575107574463,0.0,1,1,121,0.5
1.0,3.9917116165161133,1.0,1,1,122,0.5
1.0,2.3346965312957764,1.0,1,1,123,0.5
1.0,2.935708522796631,1.0,1,1,124,0.5
1.0,3.26072359085083,1.0,1,1,125,0.5
1.0,3.224721908569336,1.0,1,1,126,0.5
1.0,3.181720018386841,0.0,1,1,127,0.5
0.0,3.013712167739868,1.0,1,1,128,0.5
0.0,3.8167243003845215,1.0,1,1,129,0.5
0.0,2.118699312210083,1.0,1,1,130,0.5
0.0,2.5226941108703613,0.0,1,1,131,0.5
1.0,4.011710166931152,1.0,1,1,132,0.5
0.0,5.018637180328369,0.0,1,1,133,0.5
1.0,3.3417274951934814,1.0,1,1,134,0.5
0.0,2.6106934547424316,0.0,1,1,135,0.5
1.0,2.8657052516937256,1.0,1,1,136,0.5
1.0,2.2416977882385254,1.0,1,1,137,0.5
1.0,3.0487136840820312,1.0,1,1,138,0.5
1.0,2.669696092605591,1.0,1,1,139,0.5
1.0,3.1337177753448486,0.0,1,1,140,0.5
1.0,3.9617137908935547,1.0,1,1,141,0.5
1.0,2.699697494506836,1.0,1,1,142,0.5
1.0,3.0657145977020264,1.0,1,1,143,0.5
1.0,3.213721513748169,1.0,1,1,144,0.5
1.0,2.958709716796875,1.0,1,1,145,0.5
1.0,2.1856985092163086,1.0,1,1,146,0.5
1.0,2.946709156036377,1.0,1,1,147,0.5
1.0,4.19469690322876,1.0,1,1,148,0.5
1.0,3.9627137184143066,1.0,1,1,149,0.5
1.0,2.697697401046753,1.0,1,1,150,0.5
1.0,2.4266953468322754,1.0,1,1,151,0.5
1.0,2.3706960678100586,0.0,1,1,152,0.5
1.0,5.852577209472656,1.0,1,1,153,0.5
1.0,2.917707681655884,1.0,1,1,154,0.5
0.0,2.650695323944092,1.0,1,1,155,0.5
1.0,5.470604419708252,1.0,1,1,156,0.5
1.0,3.0797152519226074,0.0,1,1,157,0.5
0.0,3.808724880218506,0.0,1,1,158,0.5
0.0,7.636447906494141,0.0,1,1,159,0.5
1.0,4.825651168823242,1.0,1,1,160,0.5
1.0,4.773654937744141,1.0,1,1,161,0.5
1.0,3.217721700668335,1.0,1,1,162,0.5
1.0,2.4076955318450928,1.0,1,1,163,0.5
1.0,2.311696767807007,0.0,1,1,164,0.5
1.0,2.25569748878479,1.0,1,1,165,0.5
1.0,3.6237382888793945,1.0,1,1,166,0.5
1.0,2.8077025413513184,0.0,1,1,167,0.5
1.0,3.1237173080444336,1.0,1,1,168,0.5
1.0,2.345696449279785,1.0,1,1,169,0.5
1.0,2.918707847595215,1.0,1,1,170,0.5
1.0,2.4336953163146973,1.0,1,1,171,0.5
1.0,4.05670690536499,1.0,1,1,172,0.5
1.0,2.4266953468322754,0.0,1,1,173,0.5
0.0,3.677734375,1.0,1,1,174,0.5
0.0,3.3937299251556396,0.0,1,1,175,0.5
0.0,3.192720413208008,1.0,1,1,176,0.5
0.0,3.0507140159606934,0.0,1,1,177,0.5
1.0,2.075699806213379,1.0,1,1,178,0.5
0.0,3.259723663330078,0.0,1,1,179,0.5
0.0,3.765727996826172,0.0,1,1,180,0.5
1.0,2.776700973510742,1.0,1,1,181,0.5
1.0,2.8517045974731445,0.0,1,1,182,0.5
1.0,3.3977301120758057,1.0,1,1,183,0.5
0.0,5.189624786376953,0.0,1,1,184,0.5
1.0,3.3507280349731445,0.0,1,1,185,0.5
1.0,2.2796971797943115,1.0,1,1,186,0.5
0.0,4.417680740356445,0.0,1,1,187,0.5
1.0,2.685696840286255,1.0,1,1,188,0.5
1.0,2.212697982788086,1.0,1,1,189,0.5
1.0,4.581668853759766,1.0,1,1,190,0.5
1.0,2.20369815826416,1.0,1,1,191,0.5
1.0,4.826651096343994,1.0,1,1,192,0.5
1.0,3.213721513748169,1.0,1,1,193,0.5
1.0,2.8887062072753906,0.0,1,1,194,0.5
1.0,3.828723430633545,1.0,1,1,195,0.5
1.0,3.763728141784668,1.0,1,1,196,0.5
1.0,3.9897117614746094,1.0,1,1,197,0.5
1.0,2.709697961807251,1.0,1,1,198,0.5
1.0,2.2376978397369385,1.0,1,1,199,0.5
1.0,2.292696952819824,0.0,1,1,200,0.5
1.0,5.248620510101318,1.0,1,1,201,0.5
1.0,3.519735813140869,0.0,1,1,202,0.5
0.0,2.4276952743530273,0.0,1,1,203,0.5
1.0,3.3467278480529785,0.0,1,1,204,0.5
1.0,3.8597211837768555,1.0,1,1,205,0.5
1.0,2.6306943893432617,1.0,1,1,206,0.5
1.0,3.019712448120117,1.0,1,1,207,0.5
1.0,3.003711700439453,0.0,1,1,208,0.5
1.0,2.5696935653686523,1.0,1,1,209,0.5
1.0,3.7117319107055664,1.0,1,1,210,0.5
1.0,2.8537046909332275,1.0,1,1,211,0.5
1.0,4.044707775115967,0.0,1,1,212,0.5
1.0,3.7907261848449707,1.0,1,1,213,0.5
1.0,3.8787198066711426,0.0,1,1,214,0.5
0.0,3.3457276821136475,0.0,1,1,215,0.5
1.0,2.436695098876953,0.0,1,1,216,0.5
1.0,4.593667984008789,1.0,1,1,217,0.5
1.0,3.0547142028808594,1.0,1,1,218,0.5
1.0,3.284724712371826,1.0,1,1,219,0.5
1.0,5.98756742477417,1.0,1,1,220,0.5
1.0,3.953714370727539,1.0,1,1,221,0.5
1.0,2.2346978187561035,1.0,1,1,222,0.5
1.0,2.7937018871307373,1.0,1,1,223,0.5
1.0,3.005711793899536,0.0,1,1,224,0.5
0.0,4.510673999786377,0.0,1,1,225,0.5
1.0,3.616738796234131,1.0,1,1,226,0.5
1.0,3.742729663848877,1.0,1,1,227,0.5
1.0,2.4306952953338623,1.0,1,1,228,0.5
1.0,2.2386977672576904,0.0,1,1,229,0.5
0.0,3.3307271003723145,0.0,1,1,230,0.5
1.0,2.6486949920654297,1.0,1,1,231,0.5
1.0,2.928708076477051,0.0,1,1,232,0.5
0.0,2.543693780899048,0.0,1,1,233,0.5
1.0,4.4986748695373535,0.0,1,1,234,0.5
0.0,6.208551406860352,0.0,1,1,235,0.5
1.0,3.913717269897461,0.0,1,1,236,0.5
1.0,5.814579963684082,1.0,1,1,237,0.5
1.0,3.203721046447754,1.0,1,1,238,0.5
1.0,2.699697494506836,1.0,1,1,239,0.5
1.0,2.4736948013305664,0.0,1,1,240,0.5
1.0,2.943708896636963,1.0,1,1,241,0.5
1.0,4.111702919006348,0.0,1,1,242,0.5
1.0,2.670696258544922,1.0,1,1,243,0.5
1.0,3.935715675354004,1.0,1,1,244,0.5
1.0,4.205696105957031,1.0,1,1,245,0.5
1.0,2.5666935443878174,1.0,1,1,246,0.5
1.0,3.7567286491394043,1.0,1,1,247,0.5
1.0,2.2896971702575684,1.0,1,1,248,0.5
1.0,2.8137028217315674,1.0,1,1,249,0.5
1.0,2.7667007446289062,0.0,1,1,250,0.5
1.0,3.3037257194519043,1.0,1,1,251,0.5
0.0,2.077699899673462,0.0,1,1,252,0.5
1.0,3.758728504180908,0.0,1,1,253,0.5
1.0,6.109558582305908,1.0,1,1,254,0.5
1.0,4.104703426361084,1.0,1,1,255,0.5
1.0,3.0827155113220215,0.0,1,1,256,0.5
0.0,3.451732635498047,0.0,1,1,257,0.5
0.0,2.67569637298584,0.0,1,1,258,0.5
1.0,4.410681247711182,0.0,1,1,259,0.5
1.0,2.4716947078704834,1.0,1,1,260,0.5
1.0,2.4136955738067627,0.0,1,1,261,0.5
1.0,4.0287089347839355,0.0,1,1,262,0.5
1.0,3.1197171211242676,1.0,1,1,263,0.5
1.0,2.8427042961120605,0.0,1,1,264,0.5
0.0,4.5836687088012695,0.0,1,1,265,0.5
1.0,6.404537200927734,1.0,1,1,266,0.5
1.0,4.398682117462158,1.0,1,1,267,0.5
0.0,2.076699733734131,0.0,1,1,268,0.5
1.0,2.713698148727417,1.0,1,1,269,0.5
1.0,2.772700786590576,1.0,1,1,270,0.5
1.0,2.8287034034729004,1.0,1,1,271,0.5
1.0,2.6296942234039307,1.0,1,1,272,0.5
1.0,2.8067026138305664,1.0,1,1,273,0.5
1.0,3.9337158203125,0.0,1,1,274,0.5
1.0,4.287690162658691,0.0,1,1,275,0.5
0.0,1.8587026596069336,0.0,1,1,276,0.5
1.0,6.237549304962158,0.0,1,1,277,0.5
0.0,3.1077165603637695,0.0,1,1,278,0.5
1.0,5.210623264312744,1.0,1,1,279,0.5
1.0,4.773654937744141,1.0,1,1,280,0.5
1.0,3.179719924926758,1.0,1,1,281,0.5
1.0,3.8007254600524902,1.0,1,1,282,0.5
1.0,2.2866971492767334,0.0,1,1,283,0.5
1.0,2.5096943378448486,1.0,1,1,284,0.5
1.0,2.76870059967041,1.0,1,1,285,0.5
1.0,4.121702194213867,1.0,1,1,286,0.5
1.0,3.651736259460449,1.0,1,1,287,0.5
1.0,2.403695583343506,1.0,1,1,288,0.5
1.0,3.4037303924560547,1.0,1,1,289,0.5
1.0,2.8087024688720703,1.0,1,1,290,0.5
1.0,2.8667054176330566,0.0,1,1,291,0.5
1.0,2.929708242416382,1.0,1,1,292,0.5
1.0,5.947570323944092,0.0,1,1,293,0.5
1.0,6.200551986694336,0.0,1,1,294,0.5
0.0,4.894646167755127,0.0,1,1,295,0.5
1.0,2.577693462371826,1.0,1,1,296,0.5
1.0,2.8267035484313965,0.0,1,1,297,0.5
1.0,3.0757150650024414,0.0,1,1,298,0.5
0.0,2.576693534851074,1.0,1,1,299,0.5
0.0,4.321687698364258,0.0,1,1,300,0.5
0.0,3.236722469329834,0.0,1,1,301,0.5
1.0,4.060706615447998,0.0,1,1,302,0.5
1.0,5.444606304168701,0.0,1,1,303,0.5
0.0,2.3856959342956543,0.0,1,1,304,0.5
1.0,5.491602897644043,0.0,1,1,305,0.5
1.0,3.0317130088806152,1.0,1,1,306,0.5
1.0,4.389682769775391,1.0,1,1,307,0.5
1.0,3.8617210388183594,1.0,1,1,308,0.5
1.0,2.1336991786956787,1.0,1,1,309,0.5
1.0,3.491734504699707,1.0,1,1,310,0.5
1.0,2.8867063522338867,1.0,1,1,311,0.5
1.0,2.740699291229248,0.0,1,1,312,0.5
1.0,4.887646675109863,0.0,1,1,313,0.5
0.0,3.6007394790649414,0.0,1,1,314,0.5
1.0,3.3607282638549805,1.0,1,1,315,0.5
1.0,2.443695068359375,1.0,1,1,316,0.5
1.0,2.0986995697021484,1.0,1,1,317,0.5
1.0,4.063706398010254,1.0,1,1,318,0.5
1.0,3.0867156982421875,1.0,1,1,319,0.5
1.0,2.6386947631835938,1.0,1,1,320,0.5
1.0,2.112699508666992,1.0,1,1,321,0.5
1.0,2.5086941719055176,1.0,1,1,322,0.5
1.0,2.997711420059204,0.0,1,1,323,0.5
1.0,3.418731212615967,0.0,1,1,324,0.5
1.0,6.660518646240234,1.0,1,1,325,0.5
1.0,3.0657145977020264,1.0,1,1,326,0.5
1.0,2.258697509765625,1.0,1,1,327,0.5
1.0,2.8237032890319824,1.0,1,1,328,0.5
1.0,4.289690017700195,0.0,1,1,329,0.5
1.0,4.900645732879639,0.0,1,1,330,0.5
1.0,3.8597211837768555,1.0,1,1,331,0.5
1.0,2.8997068405151367,1.0,1,1,332,0.5
1.0,3.211721420288086,1.0,1,1,333,0.5
1.0,2.5066943168640137,1.0,1,1,334,0.5
1.0,2.7667007446289062,1.0,1,1,335,0.5
1.0,2.990711212158203,1.0,1,1,336,0.5
1.0,2.754700183868408,1.0,1,1,337,0.5
1.0,2.3676960468292236,0.0,1,1,338,0.5
1.0,3.6187386512756348,1.0,1,1,339,0.5
1.0,4.05670690536499,1.0,1,1,340,0.5
1.0,4.275691032409668,0.0,1,1,341,0.5
1.0,3.182720184326172,0.0,1,1,342,0.5
1.0,4.570669651031494,0.0,1,1,343,0.5
0.0,2.6106934547424316,0.0,1,1,344,0.5
0.0,4.0077104568481445,0.0,1,1,345,0.5
1.0,2.3736960887908936,1.0,1,1,346,0.5
1.0,2.482694625854492,1.0,1,1,347,0.5
1.0,2.11669921875,1.0,1,1,348,0.5
1.0,2.7707009315490723,0.0,1,1,349,0.5
0.0,2.537693977355957,1.0,1,1,350,0.5
1.0,3.80572509765625,1.0,1,1,351,0.5
0.0,2.8337037563323975,0.0,1,1,352,0.5
0.0,4.638664722442627,1.0,1,1,353,0.5
1.0,3.720731258392334,1.0,1,1,354,0.5
1.0,3.5667381286621094,1.0,1,1,355,0.5
1.0,3.613739013671875,0.0,1,1,356,0.5
0.0,5.231621742248535,0.0,1,1,357,0.5
1.0,5.343613624572754,1.0,1,1,358,0.5
1.0,3.929716110229492,0.0,1,1,359,0.5
0.0,2.3826959133148193,0.0,1,1,360,0.5
1.0,6.014565467834473,1.0,1,1,361,0.5
1.0,4.561670303344727,0.0,1,1,362,0.5
0.0,4.0077104568481445,1.0,1,1,363,0.5
0.0,3.632737636566162,0.0,1,1,364,0.5
0.0,2.4696948528289795,0.0,1,1,365,0.5
0.0,2.932708263397217,0.0,1,1,366,0.5
1.0,2.160698890686035,1.0,1,1,367,0.5
1.0,3.183720111846924,1.0,1,1,368,0.5
1.0,3.4077305793762207,1.0,1,1,369,0.5
1.0,2.7757010459899902,0.0,1,1,370,0.5
1.0,6.54552698135376,1.0,1,1,371,0.5
1.0,3.020712375640869,1.0,1,1,372,0.5
1.0,3.0527138710021973,1.0,1,1,373,0.5
1.0,2.390695810317993,1.0,1,1,374,0.5
1.0,4.531672477722168,1.0,1,1,375,0.5
1.0,2.3846960067749023,1.0,1,1,376,0.5
1.0,2.396695613861084,1.0,1,1,377,0.5
1.0,2.2016983032226562,0.0,1,1,378,0.5
1.0,4.912644863128662,1.0,1,1,379,0.5
1.0,3.7467293739318848,1.0,1,1,380,0.5
1.0,1.9817010164260864,1.0,1,1,381,0.5
1.0,4.02570915222168,0.0,1,1,382,0.5
1.0,4.203696250915527,1.0,1,1,383,0.5
1.0,4.92164421081543,0.0,1,1,384,0.5
0.0,3.6297378540039062,0.0,1,1,385,0.5
1.0,3.0497138500213623,0.0,1,1,386,0.5
1.0,2.8437042236328125,0.0,1,1,387,0.5
1.0,3.2957253456115723,1.0,1,1,388,0.5
1.0,3.526736259460449,1.0,1,1,389,0.5
1.0,2.703697681427002,1.0,1,1,390,0.5
1.0,2.973710298538208,1.0,1,1,391,0.5
1.0,3.2937252521514893,1.0,1,1,392,0.5
1.0,2.353696346282959,0.0,1,1,393,0.5
0.0,2.1396989822387695,1.0,1,1,394,0.5
0.0,2.6066932678222656,1.0,1,1,395,0.5
0.0,2.765700578689575,0.0,1,1,396,0.5
0.0,1.9987008571624756,0.0,1,1,397,0.5
0.0,3.230722427368164,0.0,1,1,398,0.5
1.0,2.5716934204101562,1.0,1,1,399,0.5
1.0,2.960709571838379,0.0,1,1,400,0.5
1.0,5.552598476409912,1.0,1,1,401,0.5
1.0,2.2306978702545166,0.0,1,1,402,0.5
1.0,2.9207077026367188,1.0,1,1,403,0.5
1.0,2.658695697784424,1.0,1,1,404,0.5
1.0,2.94170880317688,1.0,1,1,405,0.5
0.0,2.40069580078125,1.0,1,1,406,0.5
1.0,3.3297269344329834,1.0,1,1,407,0.5
1.0,4.376683712005615,1.0,1,1,408,0.5
1.0,3.1037163734436035,0.0,1,1,409,0.5
1.0,3.5717382431030273,1.0,1,1,410,0.5
1.0,6.567525386810303,1.0,1,1,411,0.5
0.0,4.205696105957031,0.0,1,1,412,0.5
1.0,2.343696355819702,0.0,1,1,413,0.5
1.0,4.5636701583862305,0.0,1,1,414,0.5
0.0,2.156698703765869,0.0,1,1,415,0.5
1.0,2.126699209213257,1.0,1,1,416,0.5
0.0,3.3407273292541504,0.0,1,1,417,0.5
1.0,5.141628265380859,1.0,1,1,418,0.5
1.0,3.0477137565612793,0.0,1,1,419,0.5
1.0,4.720658779144287,1.0,1,1,420,0.5
1.0,4.373683929443359,0.0,1,1,421,0.5
1.0,2.978710651397705,1.0,1,1,422,0.5
1.0,3.480733871459961,1.0,1,1,423,0.5
1.0,2.5226941108703613,1.0,1,1,424,0.5
1.0,2.970710277557373,1.0,1,1,425,0.5
1.0,2.0087006092071533,0.0,1,1,426,0.5
1.0,2.729698896408081,1.0,1,1,427,0.5
1.0,2.2706973552703857,1.0,1,1,428,0.5
1.0,5.09063196182251,0.0,1,1,429,0.5
1.0,3.517735719680786,1.0,1,1,430,0.5
1.0,2.398695707321167,0.0,1,1,431,0.5
1.0,2.953709363937378,0.0,1,1,432,0.5
1.0,3.7567286491394043,1.0,1,1,433,0.5
1.0,2.3716959953308105,1.0,1,1,434,0.5
1.0,2.4216954708099365,0.0,1,1,435,0.5
1.0,3.22072172164917,1.0,1,1,436,0.5
1.0,3.539736747741699,1.0,1,1,437,0.5
1.0,3.7767271995544434,1.0,1,1,438,0.5
1.0,2.5246939659118652,1.0,1,1,439,0.5
1.0,3.3767290115356445,1.0,1,1,440,0.5
1.0,2.7877016067504883,1.0,1,1,441,0.5
1.0,3.210721492767334,1.0,1,1,442,0.5
1.0,2.8137028217315674,0.0,1,1,443,0.5
1.0,4.6706624031066895,1.0,1,1,444,0.5
1.0,2.6086931228637695,1.0,1,1,445,0.5
1.0,2.9247078895568848,1.0,1,1,446,0.5
1.0,2.8747057914733887,1.0,1,1,447,0.5
1.0,3.5547375679016113,0.0,1,1,448,0.5
1.0,2.9087071418762207,1.0,1,1,449,0.5
1.0,2.1886982917785645,1.0,1,1,450,0.5
1.0,3.485734224319458,1.0,1,1,451,0.5
1.0,2.5556936264038086,0.0,1,1,452,0.5
0.0,3.231722354888916,0.0,1,1,453,0.5
1.0,3.3167262077331543,1.0,1,1,454,0.5
1.0,3.3397274017333984,1.0,1,1,455,0.5
1.0,2.747699737548828,1.0,1,1,456,0.5
1.0,2.495694398880005,0.0,1,1,457,0.5
1.0,6.430535316467285,1.0,1,1,458,0.5
1.0,2.705697774887085,1.0,1,1,459,0.5
1.0,2.705697774887085,0.0,1,1,460,0.5
1.0,4.996638774871826,1.0,1,1,461,0.5
1.0,4.393682479858398,0.0,1,1,462,0.5
1.0,2.765700578689575,0.0,1,1,463,0.5
0.0,2.3246965408325195,0.0,1,1,464,0.5
0.0,3.466733455657959,0.0,1,1,465,0.5
0.0,5.079632759094238,0.0,1,1,466,0.5
0.0,4.482676029205322,1.0,1,1,467,0.5
0.0,3.765727996826172,0.0,1,1,468,0.5
0.0,2.919707775115967,1.0,1,1,469,0.5
0.0,5.498602390289307,0.0,1,1,470,0.5
0.0,6.094559669494629,0.0,1,1,471,0.5
0.0,2.403695583343506,0.0,1,1,472,0.5
0.0,5.834578514099121,1.0,1,1,473,0.5
0.0,2.8987069129943848,0.0,1,1,474,0.5
0.0,6.101559162139893,0.0,1,1,475,0.5
0.0,6.169554233551025,1.0,1,1,476,0.5
0.0,2.5046944618225098,1.0,1,1,477,0.5
0.0,2.062700033187866,0.0,1,1,478,0.5
0.0,3.7747273445129395,0.0,1,1,479,0.5
1.0,3.936715602874756,1.0,1,1,480,0.5
1.0,1.886702299118042,0.0,1,1,481,0.5
0.0,2.4316952228546143,0.0,1,1,482,0.5
1.0,6.277546405792236,0.0,1,1,483,0.5
1.0,3.6287379264831543,1.0,1,1,484,0.5
1.0,4.034708499908447,1.0,1,1,485,0.5
0.0,2.4806947708129883,0.0,1,1,486,0.5
1.0,2.3746960163116455,1.0,1,1,487,0.5
1.0,2.2856972217559814,1.0,1,1,488,0.5
1.0,2.292696952819824,0.0,1,1,489,0.5
1.0,5.16762638092041,1.0,1,1,490,0.5
1.0,4.227694511413574,1.0,1,1,491,0.5
1.0,5.168626308441162,1.0,1,1,492,0.5
1.0,2.7967019081115723,0.0,1,1,493,0.5
1.0,4.006710529327393,1.0,1,1,494,0.5
1.0,3.1047163009643555,1.0,1,1,495,0.5
1.0,2.4686946868896484,1.0,1,1,496,0.5
1.0,2.581693410873413,1.0,1,1,497,0.5
1.0,3.0617144107818604,1.0,1,1,498,0.5
1.0,2.982710838317871,1.0,1,1,499,0.5
1.0,2.1026995182037354,1.0,1,1,500,0.5
0.0,5.704587936401367,1.0,1,2,1,0.5
1.0,4.012710094451904,0.0,1,2,2,0.5
0.0,2.215698003768921,0.0,1,2,3,0.5
0.0,5.0116376876831055,1.0,1,2,4,0.5
0.0,2.346696376800537,0.0,1,2,5,0.5
0.0,2.343696355819702,0.0,1,2,6,0.5
0.0,3.272724151611328,1.0,1,2,7,0.5
0.0,3.3827295303344727,0.0,1,2,8,0.5
0.0,2.9117074012756348,1.0,1,2,9,0.5
0.0,2.5956931114196777,0.0,1,2,10,0.5
0.0,5.545598983764648,0.0,1,2,11,0.5
1.0,5.067633628845215,0.0,1,2,12,0.5
1.0,2.757700204849243,0.0,1,2,13,0.5
1.0,4.13870096206665,1.0,1,2,14,0.5
1.0,3.461733102798462,0.0,1,2,15,0.5
1.0,5.659591197967529,1.0,1,2,16,0.5
1.0,2.6236939430236816,1.0,1,2,17,0.5
1.0,3.4337317943573,1.0,1,2,18,0.5
1.0,2.297697067260742,1.0,1,2,19,0.5
1.0,2.6376945972442627,0.0,1,2,20,0.5
0.0,4.591668128967285,1.0,1,2,21,0.5
1.0,4.836650371551514,1.0,1,2,22,0.5
0.0,2.488694667816162,0.0,1,2,23,0.5
1.0,4.611666679382324,1.0,1,2,24,0.5
1.0,3.519735813140869,0.0,1,2,25,0.5
1.0,5.778582572937012,0.0,1,2,26,0.5
1.0,3.7897262573242188,1.0,1,2,27,0.5
1.0,5.5435991287231445,1.0,1,2,28,0.5
1.0,3.0777151584625244,1.0,1,2,29,0.5
1.0,2.3866958618164062,1.0,1,2,30,0.5
1.0,2.8437042236328125,0.0,1,2,31,0.5
1.0,2.587693214416504,1.0,1,2,32,0.5
0.0,3.871720314025879,0.0,1,2,33,0.5
1.0,3.459733009338379,1.0,1,2,34,0.5
1.0,2.1836984157562256,0.0,1,2,35,0.5
1.0,2.267697334289551,0.0,1,2,36,0.5
1.0,5.591595649719238,0.0,1,2,37,0.5
1.0,3.1427183151245117,1.0,1,2,38,0.5
1.0,4.120702266693115,1.0,1,2,39,0.5
1.0,2.4746947288513184,0.0,1,2,40,0.5
1.0,3.447732448577881,0.0,1,2,41,0.5
0.0,2.38869571685791,0.0,1,2,42,0.5
0.0,2.1356990337371826,0.0,1,2,43,0.5
1.0,4.479676246643066,1.0,1,2,44,0.5
1.0,2.3726959228515625,1.0,1,2,45,0.5
1.0,2.3386964797973633,1.0,1,2,46,0.5
1.0,2.44669508934021,1.0,1,2,47,0.5
1.0,2.176698684692383,0.0,1,2,48,0.5
1.0,4.2226948738098145,1.0,1,2,49,0.5
1.0,3.609739303588867,0.0,1,2,50,0.5
1.0,2.672696113586426,1.0,1,2,51,0.5
1.0,3.1077165603637695,0.0,1,2,52,0.5
1.0,2.6276941299438477,0.0,1,2,53,0.5
1.0,3.201720952987671,0.0,1,2,54,0.5
1.0,2.309696912765503,1.0,1,2,55,0.5
1.0,2.764700412750244,0.0,1,2,56,0.5
0.0,3.6937332153320312,0.0,1,2,57,0.5
1.0,3.7487292289733887,1.0,1,2,58,0.5
1.0,2.6036930084228516,1.0,1,2,59,0.5
1.0,2.9087071418762207,0.0,1,2,60,0.5
1.0,3.0357131958007812,0.0,1,2,61,0.5
0.0,3.504734992980957,0.0,1,2,62,0.5
1.0,4.155699729919434,1.0,1,2,63,0.5
1.0,2.5126943588256836,0.0,1,2,64,0.5
1.0,2.5176942348480225,1.0,1,2,65,0.5
1.0,4.099703788757324,1.0,1,2,66,0.5
1.0,2.583693265914917,0.0,1,2,67,0.5
1.0,4.01570987701416,1.0,1,2,68,0.5
1.0,3.6067395210266113,0.0,1,2,69,0.5
1.0,4.756656169891357,0.0,1,2,70,0.5
1.0,5.684589385986328,1.0,1,2,71,0.5
1.0,3.514735698699951,1.0,1,2,72,0.5
1.0,2.8517045974731445,1.0,1,2,73,0.5
1.0,4.303689002990723,0.0,1,2,74,0.5
1.0,3.9237165451049805,1.0,1,2,75,0.5
1.0,2.8547048568725586,1.0,1,2,76,0.5
1.0,2.167698621749878,1.0,1,2,77,0.5
1.0,2.5056943893432617,0.0,1,2,78,0.5
0.0,4.917644500732422,1.0,1,2,79,0.5
0.0,3.3367271423339844,0.0,1,2,80,0.5
1.0,3.1087164878845215,0.0,1,2,81,0.5
0.0,2.5996930599212646,1.0,1,2,82,0.5
0.0,3.26072359085083,1.0,1,2,83,0.5
0.0,3.223721981048584,1.0,1,2,84,0.5
0.0,2.576693534851074,1.0,1,2,85,0.5
0.0,3.3097259998321533,0.0,1,2,86,0.5
1.0,3.009711980819702,0.0,1,2,87,0.5
0.0,2.450695037841797,0.0,1,2,88,0.5
0.0,2.074699878692627,0.0,1,2,89,0.5
1.0,5.248620510101318,0.0,1,2,90,0.5
1.0,4.083704948425293,1.0,1,2,91,0.5
1.0,5.237621307373047,1.0,1,2,92,0.5
1.0,2.737699270248413,1.0,1,2,93,0.5
1.0,2.1056995391845703,1.0,1,2,94,0.5
1.0,2.6056931018829346,1.0,1,2,95,0.5
1.0,2.4226953983306885,0.0,1,2,96,0.5
1.0,2.8557047843933105,1.0,1,2,97,0.5
1.0,4.042707920074463,1.0,1,2,98,0.5
1.0,2.5176942348480225,1.0,1,2,99,0.5
1.0,2.9047069549560547,1.0,1,2,100,0.5
1.0,4.068706035614014,1.0,1,2,101,0.5
1.0,1.8697024583816528,1.0,1,2,102,0.5
1.0,2.741699457168579,1.0,1,2,103,0.5
1.0,2.922708034515381,1.0,1,2,104,0.5
1.0,2.0926995277404785,0.0,1,2,105,0.5
1.0,4.212695598602295,0.0,1,2,106,0.5
0.0,4.228694438934326,1.0,1,2,107,0.5
0.0,5.892574310302734,1.0,1,2,108,0.5
0.0,4.290689945220947,0.0,1,2,109,0.5
0.0,2.7827014923095703,0.0,1,2,110,0.5
0.0,5.048635005950928,0.0,1,2,111,0.5
0.0,6.680517196655273,1.0,1,2,112,0.5
0.0,4.385683059692383,0.0,1,2,113,0.5
0.0,4.295689582824707,1.0,1,2,114,0.5
0.0,2.7937018871307373,0.0,1,2,115,0.5
0.0,5.217622756958008,0.0,1,2,116,0.5
1.0,3.4137308597564697,0.0,1,2,117,0.5
0.0,2.1826984882354736,1.0,1,2,118,0.5
0.0,3.497734785079956,1.0,1,2,119,0.5
