response,rt,feedback,subj_idx,split_by,trial,neural_reg,q_init
1.0,1.923513650894165,1.0,0,0,1,0.8806252322867403,0.5
1.0,1.8815141916275024,1.0,0,0,2,-0.4227142918950317,0.5
1.0,2.20950984954834,1.0,0,0,3,1.1363560150253644,0.5
0.0,1.5875155925750732,0.0,0,0,4,-1.5090134014244383,0.5
1.0,1.63951575756073,1.0,0,0,5,-2.0702395950775982,0.5
0.0,1.9605131149291992,1.0,0,0,6,-0.03535987884557411,0.5
0.0,1.8865140676498413,0.0,0,0,7,0.1505041096740136,0.5
0.0,1.6205157041549683,0.0,0,0,8,-1.7403565368005545,0.5
1.0,2.016512393951416,1.0,0,0,9,0.7227502718233958,0.5
1.0,1.8235149383544922,1.0,0,0,10,0.8403899344929011,0.5
1.0,1.9415134191513062,0.0,0,0,11,0.4929888996592499,0.5
1.0,1.7215158939361572,1.0,0,0,12,-1.164913880547118,0.5
0.0,1.8085150718688965,0.0,0,0,13,-1.2739063258116676,0.5
1.0,1.9385133981704712,1.0,0,0,14,0.974575866979482,0.5
1.0,1.5455156564712524,1.0,0,0,15,-2.3326865867346775,0.5
1.0,2.0485119819641113,0.0,0,0,16,1.9750032658318037,0.5
1.0,1.9885127544403076,1.0,0,0,17,0.09429068995350601,0.5
1.0,1.9165136814117432,1.0,0,0,18,-0.39218766017727735,0.5
0.0,1.8215149641036987,0.0,0,0,19,0.6838122502495222,0.5
1.0,1.8395147323608398,1.0,0,0,20,-0.5807584486831222,0.5
1.0,1.8605144023895264,0.0,0,0,21,-0.3069677644535929,0.5
1.0,2.026512384414673,1.0,0,0,22,0.9891070967652502,0.5
1.0,1.6885159015655518,1.0,0,0,23,-0.28547464982374865,0.5
1.0,1.8205149173736572,1.0,0,0,24,0.12302827389321727,0.5
1.0,1.667515754699707,1.0,0,0,25,-0.8695777045572671,0.5
1.0,2.0385122299194336,1.0,0,0,26,1.1913449189087737,0.5
1.0,1.8005151748657227,1.0,0,0,27,-1.030936099053084,0.5
1.0,2.256509304046631,0.0,0,0,28,2.1551940262139135,0.5
0.0,1.9215136766433716,0.0,0,0,29,-0.11944137173738976,0.5
0.0,1.9445133209228516,1.0,0,0,30,-0.48307146599832423,0.5
0.0,1.7695156335830688,1.0,0,0,31,-0.07909046781971232,0.5
0.0,1.923513650894165,0.0,0,0,32,0.20899189834236087,0.5
0.0,2.112511157989502,0.0,0,0,33,1.0548723091118049,0.5
0.0,1.9635131359100342,0.0,0,0,34,-0.3657112221350935,0.5
0.0,2.055511951446533,0.0,0,0,35,0.07849489893703625,0.5
1.0,1.7255159616470337,1.0,0,0,36,-0.7571176986521593,0.5
0.0,1.97251296043396,1.0,0,0,37,1.5391843309008444,0.5
1.0,2.3655080795288086,1.0,0,0,38,2.527951230635049,0.5
1.0,1.946513295173645,1.0,0,0,39,-0.25252422886921205,0.5
0.0,2.200510025024414,0.0,0,0,40,1.3653971597962213,0.5
1.0,2.243509531021118,1.0,0,0,41,1.2166177961905618,0.5
0.0,1.9805128574371338,0.0,0,0,42,0.12837209666082325,0.5
1.0,1.7145159244537354,1.0,0,0,43,-0.06986653096387688,0.5
1.0,1.8625143766403198,1.0,0,0,44,0.31666610999009065,0.5
1.0,1.7325159311294556,1.0,0,0,45,-0.403622866544851,0.5
1.0,1.736515998840332,0.0,0,0,46,-1.4882671762910944,0.5
0.0,1.9335135221481323,0.0,0,0,47,0.9291467943590938,0.5
0.0,1.7635157108306885,0.0,0,0,48,-1.7621462482199297,0.5
0.0,2.02451229095459,0.0,0,0,49,0.3315889416311588,0.5
0.0,2.151510715484619,0.0,0,0,50,1.6379360108369863,0.5
1.0,1.9795129299163818,1.0,0,0,51,0.13849005810748297,0.5
0.0,1.5915156602859497,0.0,0,0,52,-2.2913578833053174,0.5
1.0,1.950513243675232,0.0,0,0,53,-0.2531276101909492,0.5
0.0,1.7165158987045288,0.0,0,0,54,-1.1663598164202607,0.5
0.0,1.8855141401290894,0.0,0,0,55,0.5230989913798278,0.5
0.0,1.670515775680542,0.0,0,0,56,0.1259786106194022,0.5
0.0,1.7855154275894165,0.0,0,0,57,-0.8900627493564228,0.5
0.0,1.9415134191513062,0.0,0,0,58,0.6875040797213446,0.5
0.0,1.7985152006149292,1.0,0,0,59,-1.619852952886481,0.5
1.0,1.902513861656189,1.0,0,0,60,-0.4522882535974746,0.5
1.0,2.1405107975006104,1.0,0,0,61,1.00444776743454,0.5
1.0,1.8775142431259155,1.0,0,0,62,0.31955891999797753,0.5
1.0,1.602515697479248,0.0,0,0,63,-1.1545586503835887,0.5
0.0,2.062511920928955,0.0,0,0,64,1.1508023021575151,0.5
0.0,1.6315157413482666,0.0,0,0,65,0.07215422588111849,0.5
0.0,2.159510612487793,0.0,0,0,66,1.5212215271246348,0.5
0.0,1.7955152988433838,0.0,0,0,67,-0.9186201520083436,0.5
1.0,2.2365095615386963,1.0,0,0,68,2.2352595883979567,0.5
1.0,1.5825155973434448,1.0,0,0,69,-1.1227323780740655,0.5
1.0,1.8405146598815918,1.0,0,0,70,-0.6898123046784432,0.5
1.0,2.0875115394592285,1.0,0,0,71,1.192878460305108,0.5
1.0,1.8485145568847656,0.0,0,0,72,0.23390852423753505,0.5
0.0,1.611515760421753,0.0,0,0,73,-0.5976574503795765,0.5
0.0,2.197510242462158,0.0,0,0,74,3.0106685015671535,0.5
0.0,2.1355109214782715,0.0,0,0,75,1.6655212387372953,0.5
0.0,1.8695143461227417,0.0,0,0,76,-0.5371971937770157,0.5
1.0,2.0485119819641113,1.0,0,0,77,0.6425329035989497,0.5
0.0,1.6795158386230469,0.0,0,0,78,-0.013725052031040177,0.5
1.0,2.1945102214813232,1.0,0,0,79,0.7174500213176608,0.5
1.0,1.7385159730911255,1.0,0,0,80,0.32022170409799616,0.5
1.0,1.7465158700942993,0.0,0,0,81,-0.14263517666719644,0.5
1.0,2.0315122604370117,1.0,0,0,82,0.26786108054445645,0.5
1.0,1.9305135011672974,0.0,0,0,83,0.33934107169645117,0.5
0.0,1.876514196395874,0.0,0,0,84,-0.14539301035379493,0.5
1.0,2.104511260986328,1.0,0,0,85,0.4432777860678304,0.5
0.0,1.5745155811309814,0.0,0,0,86,-1.7522980992996446,0.5
1.0,2.0075125694274902,1.0,0,0,87,0.5983349079388158,0.5
0.0,2.063511848449707,0.0,0,0,88,1.8506354646248293,0.5
1.0,2.0755116939544678,1.0,0,0,89,1.994381586256635,0.5
0.0,2.021512508392334,0.0,0,0,90,0.6095706865861256,0.5
1.0,1.94951331615448,1.0,0,0,91,-0.34229569891388395,0.5
1.0,2.4135074615478516,0.0,0,0,92,2.277180325962266,0.5
0.0,1.6385157108306885,0.0,0,0,93,-1.6639113580209697,0.5
1.0,1.8965139389038086,0.0,0,0,94,-0.22871358640872444,0.5
0.0,2.1695103645324707,0.0,0,0,95,0.6094451451672717,0.5
0.0,1.9705129861831665,0.0,0,0,96,-0.5106972522241501,0.5
1.0,1.7465158700942993,1.0,0,0,97,-0.11613004460604673,0.5
1.0,2.0035126209259033,1.0,0,0,98,0.7551047451035325,0.5
0.0,1.924513578414917,0.0,0,0,99,1.0856215556972955,0.5
1.0,1.7105158567428589,1.0,0,0,100,-0.7010228893999575,0.5
1.0,1.60951566696167,1.0,0,0,101,-0.9206560597922945,0.5
0.0,1.6905158758163452,0.0,0,0,102,-1.0552928420723051,0.5
1.0,1.7415159940719604,1.0,0,0,103,-0.5191190621288521,0.5
0.0,1.8415147066116333,0.0,0,0,104,-1.10842727157754,0.5
1.0,1.8845140933990479,1.0,0,0,105,1.1245424820669578,0.5
1.0,1.7795155048370361,1.0,0,0,106,-1.0838464545368007,0.5
1.0,1.7055158615112305,0.0,0,0,107,-0.8160758042371956,0.5
1.0,1.9265135526657104,1.0,0,0,108,-0.25547217837914327,0.5
0.0,1.8125150203704834,0.0,0,0,109,-0.2774217273655078,0.5
1.0,2.114511251449585,0.0,0,0,110,1.1510387250650675,0.5
1.0,1.9185136556625366,1.0,0,0,111,0.9357529268110113,0.5
0.0,2.118511199951172,1.0,0,0,112,0.6612487020756825,0.5
1.0,1.9375134706497192,0.0,0,0,113,0.1575537093158364,0.5
0.0,1.6585158109664917,1.0,0,0,114,0.038055844261679066,0.5
0.0,1.7925152778625488,1.0,0,0,115,0.8773749902466182,0.5
0.0,1.8735142946243286,0.0,0,0,116,2.099408235334584,0.5
1.0,1.9605131149291992,1.0,0,0,117,0.561194116630771,0.5
1.0,1.945513367652893,1.0,0,0,118,2.184789270230887,0.5
1.0,2.011512517929077,1.0,0,0,119,-0.19360356314059424,0.5
1.0,1.9095138311386108,0.0,0,0,120,-0.11259550468972984,0.5
1.0,1.832514762878418,0.0,0,0,121,-0.3163237543274377,0.5
1.0,2.029512405395508,0.0,0,0,122,1.2692195509197175,0.5
0.0,1.6165157556533813,0.0,0,0,123,-1.2642905091493435,0.5
0.0,2.0035126209259033,1.0,0,0,124,-0.13101704913021822,0.5
0.0,1.78751540184021,1.0,0,0,125,0.491302489414397,0.5
0.0,1.667515754699707,1.0,0,0,126,-0.913632080177389,0.5
0.0,1.8685142993927002,1.0,0,0,127,0.7888666989225807,0.5
0.0,1.8565144538879395,0.0,0,0,128,0.31849839654298195,0.5
0.0,1.5795156955718994,0.0,0,0,129,-1.1800173394436102,0.5
0.0,1.8715143203735352,0.0,0,0,130,-0.12005865059568505,0.5
0.0,1.6745158433914185,1.0,0,0,131,-0.4425201947603941,0.5
0.0,1.709515929222107,0.0,0,0,132,-0.6007332242439499,0.5
1.0,1.5955157279968262,1.0,0,0,133,-2.4365508950219708,0.5
1.0,1.606515645980835,1.0,0,0,134,-2.20116933442271,0.5
1.0,1.7995152473449707,1.0,0,0,135,-0.7338119182462122,0.5
1.0,1.7865153551101685,0.0,0,0,136,-1.4544589416779943,0.5
0.0,1.7325159311294556,1.0,0,0,137,-0.6200130058544742,0.5
0.0,1.7705155611038208,0.0,0,0,138,-0.5584887296659223,0.5
0.0,1.6295157670974731,0.0,0,0,139,-1.6142190748164298,0.5
1.0,2.201509952545166,0.0,0,0,140,2.2494862181017377,0.5
1.0,1.9955127239227295,0.0,0,0,141,0.3867168125528911,0.5
1.0,2.159510612487793,1.0,0,0,142,0.9895376976636223,0.5
1.0,2.164510488510132,1.0,0,0,143,2.43396733771919,0.5
1.0,1.9695130586624146,0.0,0,0,144,-0.026868322340995288,0.5
0.0,2.2705092430114746,0.0,0,0,145,1.69484065491036,0.5
0.0,2.1835103034973145,0.0,0,0,146,2.66610476331128,0.5
0.0,2.0405120849609375,0.0,0,0,147,0.4136347254829171,0.5
1.0,1.9815129041671753,1.0,0,0,148,0.6197625130120902,0.5
0.0,1.7455159425735474,1.0,0,0,149,-0.9531766518500132,0.5
0.0,1.6225156784057617,1.0,0,0,150,-0.8704572611131417,0.5
1.0,1.8775142431259155,1.0,0,0,151,-0.5063833797284781,0.5
1.0,1.8215149641036987,1.0,0,0,152,-0.6818578344912192,0.5
0.0,1.8015152215957642,0.0,0,0,153,-0.9097099932788076,0.5
1.0,1.6555157899856567,1.0,0,0,154,0.22418298262477968,0.5
1.0,1.7475159168243408,1.0,0,0,155,-1.4617424609781278,0.5
1.0,1.9885127544403076,1.0,0,0,156,0.42305299680232,0.5
1.0,1.8215149641036987,1.0,0,0,157,-0.9038220954588126,0.5
0.0,1.9765129089355469,0.0,0,0,158,0.2595432221571632,0.5
1.0,2.1895103454589844,0.0,0,0,159,1.4961742488588123,0.5
1.0,1.8995139598846436,1.0,0,0,160,0.6037040223039011,0.5
1.0,1.78751540184021,1.0,0,0,161,-1.0401646325129221,0.5
0.0,1.7745155096054077,0.0,0,0,162,-1.1966677357228879,0.5
1.0,1.605515718460083,1.0,0,0,163,-1.501684843315913,0.5
1.0,2.112511157989502,1.0,0,0,164,1.379368278534777,0.5
0.0,1.8525145053863525,0.0,0,0,165,-0.2922327595568516,0.5
0.0,1.5975157022476196,1.0,0,0,166,-0.4465922344449991,0.5
0.0,2.074511766433716,0.0,0,0,167,0.6352091039851915,0.5
1.0,1.6355156898498535,1.0,0,0,168,-0.49918319611075923,0.5
0.0,2.0875115394592285,0.0,0,0,169,0.7275771876015266,0.5
1.0,1.8685142993927002,1.0,0,0,170,-0.18758652966957917,0.5
1.0,2.0395121574401855,1.0,0,0,171,1.1540311862945036,0.5
1.0,1.7135158777236938,1.0,0,0,172,-0.346340460341953,0.5
1.0,1.676515817642212,0.0,0,0,173,-1.0795869522867678,0.5
0.0,1.854514479637146,0.0,0,0,174,-0.3789071490650424,0.5
1.0,2.0985114574432373,1.0,0,0,175,0.8186355643860752,0.5
1.0,1.6145156621932983,1.0,0,0,176,-1.1192742305932857,0.5
1.0,1.5675156116485596,1.0,0,0,177,-1.3691772733835499,0.5
0.0,1.9395134449005127,0.0,0,0,178,-0.754465510393371,0.5
1.0,1.8715143203735352,1.0,0,0,179,0.1751547772305492,0.5
0.0,1.7215158939361572,0.0,0,0,180,0.011624187252732007,0.5
1.0,1.9995126724243164,1.0,0,0,181,0.4171707977925515,0.5
1.0,1.6995158195495605,1.0,0,0,182,0.21041420084050105,0.5
1.0,1.9125137329101562,1.0,0,0,183,0.969436704658897,0.5
1.0,1.6285157203674316,0.0,0,0,184,-1.6913542337650425,0.5
0.0,1.9835128784179688,0.0,0,0,185,1.4619059606116551,0.5
1.0,1.8685142993927002,1.0,0,0,186,0.218258737380392,0.5
1.0,1.9595131874084473,1.0,0,0,187,1.390880472183354,0.5
1.0,1.876514196395874,1.0,0,0,188,-0.6699828165154263,0.5
1.0,1.7275159358978271,1.0,0,0,189,-0.576597593249063,0.5
1.0,1.8695143461227417,0.0,0,0,190,1.2371294362000849,0.5
1.0,2.055511951446533,0.0,0,0,191,0.06890167749699297,0.5
0.0,1.7995152473449707,0.0,0,0,192,0.5941314534548169,0.5
0.0,2.1315109729766846,0.0,0,0,193,1.8910279281886775,0.5
0.0,1.7165158987045288,0.0,0,0,194,-1.3564961030765446,0.5
0.0,1.7445158958435059,0.0,0,0,195,-0.5276125716115941,0.5
1.0,1.7215158939361572,1.0,0,0,196,-0.27703210353643276,0.5
1.0,1.7075159549713135,1.0,0,0,197,-1.0252172265742927,0.5
0.0,1.8185149431228638,0.0,0,0,198,-1.0444329437351885,0.5
0.0,2.300508737564087,0.0,0,0,199,1.3900046524602034,0.5
1.0,1.879514217376709,1.0,0,0,200,-0.41045532803013307,0.5
1.0,1.780515432357788,1.0,0,0,201,-0.8684310823234861,0.5
0.0,1.9665130376815796,1.0,0,0,202,-0.2154587624269105,0.5
1.0,1.6995158195495605,1.0,0,0,203,0.0021246145641718004,0.5
0.0,1.788515329360962,0.0,0,0,204,0.09264808270990355,0.5
1.0,1.7975152730941772,1.0,0,0,205,-0.01277212857979583,0.5
1.0,1.9585131406784058,1.0,0,0,206,0.8282071142169493,0.5
1.0,1.6495157480239868,1.0,0,0,207,-0.5257107221691312,0.5
0.0,1.872514247894287,0.0,0,0,208,-0.50544770383821,0.5
1.0,1.6745158433914185,1.0,0,0,209,-1.170017267841839,0.5
1.0,1.7895153760910034,1.0,0,0,210,0.09745735340049341,0.5
1.0,2.158510684967041,0.0,0,0,211,0.9877608317783542,0.5
0.0,1.740515947341919,0.0,0,0,212,-0.7763952311761023,0.5
1.0,1.9555132389068604,1.0,0,0,213,-0.37942619539131595,0.5
1.0,1.8195149898529053,1.0,0,0,214,-0.7076052832789086,0.5
1.0,1.9125137329101562,0.0,0,0,215,0.7215559509828575,0.5
1.0,1.858514428138733,1.0,0,0,216,-0.9717703318962908,0.5
1.0,1.8145149946212769,0.0,0,0,217,0.4885954560443631,0.5
1.0,2.1255111694335938,1.0,0,0,218,0.8909884798901435,0.5
0.0,1.9575132131576538,0.0,0,0,219,0.732329994555674,0.5
0.0,1.7295159101486206,0.0,0,0,220,0.9486493843844789,0.5
1.0,1.784515380859375,1.0,0,0,221,0.3625476541384147,0.5
1.0,1.6745158433914185,0.0,0,0,222,-1.2626259235177375,0.5
1.0,1.7385159730911255,0.0,0,0,223,-0.38986287815005544,0.5
1.0,1.7915153503417969,1.0,0,0,224,-0.20999187835044303,0.5
0.0,1.7685155868530273,0.0,0,0,225,-0.9405450977644192,0.5
1.0,1.8145149946212769,1.0,0,0,226,0.10315747250480863,0.5
1.0,2.113511085510254,0.0,0,0,227,1.0781791104231855,0.5
0.0,1.9735130071640015,0.0,0,0,228,0.19498466505574935,0.5
1.0,1.8475146293640137,1.0,0,0,229,-0.5243465483642422,0.5
1.0,1.606515645980835,0.0,0,0,230,-1.7127883095909089,0.5
0.0,1.8645143508911133,0.0,0,0,231,0.08409815163576165,0.5
1.0,1.9145137071609497,0.0,0,0,232,0.01727180060144097,0.5
0.0,2.0495119094848633,0.0,0,0,233,0.9220864180151885,0.5
0.0,1.762515664100647,0.0,0,0,234,-0.8400503959449482,0.5
0.0,1.703515887260437,0.0,0,0,235,-0.9316429899254522,0.5
0.0,1.7135158777236938,0.0,0,0,236,-1.4025658154207357,0.5
0.0,1.6125156879425049,1.0,0,0,237,-0.1926053800362978,0.5
0.0,1.6615158319473267,0.0,0,0,238,-0.7368701635027816,0.5
0.0,1.9225136041641235,0.0,0,0,239,0.7429341405051224,0.5
1.0,1.6385157108306885,0.0,0,0,240,-1.8719324888240712,0.5
0.0,1.7215158939361572,0.0,0,0,241,-0.860729430899623,0.5
0.0,2.0735116004943848,0.0,0,0,242,0.28989687360089195,0.5
0.0,2.016512393951416,0.0,0,0,243,0.7579293662829004,0.5
1.0,1.9525132179260254,0.0,0,0,244,0.23022699703756092,0.5
0.0,1.6945158243179321,0.0,0,0,245,-0.6731735732448185,0.5
0.0,1.9405133724212646,0.0,0,0,246,-0.4489048847380524,0.5
0.0,1.9375134706497192,1.0,0,0,247,0.3510335315888205,0.5
0.0,1.8195149898529053,0.0,0,0,248,-0.5325799174405911,0.5
0.0,1.6965159177780151,0.0,0,0,249,-0.4782317808462714,0.5
0.0,1.730515956878662,1.0,0,0,250,-1.2428243723593169,0.5
0.0,2.011512517929077,0.0,0,0,251,1.3781648065403405,0.5
0.0,1.89751398563385,0.0,0,0,252,0.4125341233397254,0.5
0.0,2.056511878967285,0.0,0,0,253,1.5767569178045038,0.5
1.0,2.0415120124816895,1.0,0,0,254,0.8705246799726479,0.5
1.0,2.0385122299194336,1.0,0,0,255,0.7911540456860751,0.5
1.0,2.062511920928955,1.0,0,0,256,0.6972263145645197,0.5
1.0,1.8485145568847656,1.0,0,0,257,-0.5293087680523919,0.5
1.0,1.6945158243179321,1.0,0,0,258,-1.4605799509199595,0.5
1.0,1.9185136556625366,1.0,0,0,259,0.8495217852957269,0.5
1.0,1.703515887260437,1.0,0,0,260,-0.2697818259257571,0.5
1.0,1.706515908241272,0.0,0,0,261,0.32017208390101526,0.5
0.0,1.8895140886306763,1.0,0,0,262,-0.43342649644247094,0.5
0.0,1.7725155353546143,0.0,0,0,263,0.2115923424686182,0.5
0.0,1.6915159225463867,1.0,0,0,264,-1.0125489262674285,0.5
0.0,1.9965126514434814,0.0,0,0,265,1.009635369486359,0.5
1.0,1.7965152263641357,1.0,0,0,266,-1.162280360239274,0.5
1.0,2.020512342453003,0.0,0,0,267,0.8542709061307185,0.5
1.0,1.8415147066116333,1.0,0,0,268,-0.40777029650379404,0.5
1.0,1.9615131616592407,1.0,0,0,269,0.02107102626850473,0.5
1.0,1.63951575756073,1.0,0,0,270,-2.3643839336104233,0.5
1.0,1.7165158987045288,1.0,0,0,271,-0.9886782491311168,0.5
1.0,1.8495146036148071,0.0,0,0,272,0.37023747555844,0.5
0.0,1.7755155563354492,0.0,0,0,273,-0.15854638008852787,0.5
0.0,1.9515132904052734,1.0,0,0,274,1.0562824773208361,0.5
1.0,1.762515664100647,1.0,0,0,275,0.5740160225537692,0.5
0.0,1.9265135526657104,1.0,0,0,276,0.3219485495906846,0.5
0.0,1.8435146808624268,0.0,0,0,277,-0.4818034624411741,0.5
1.0,2.074511766433716,1.0,0,0,278,0.4750889074251812,0.5
1.0,1.7245159149169922,1.0,0,0,279,-0.546123778589998,0.5
1.0,1.7545157670974731,1.0,0,0,280,-0.4055608877482529,0.5
1.0,1.8925139904022217,1.0,0,0,281,-0.4134933289810334,0.5
1.0,1.9875128269195557,1.0,0,0,282,-0.0748561725841219,0.5
1.0,2.2315096855163574,1.0,0,0,283,2.115989403047093,0.5
1.0,1.6935158967971802,1.0,0,0,284,-1.3629794193583915,0.5
1.0,1.7895153760910034,1.0,0,0,285,0.11019741893710498,0.5
0.0,1.8885140419006348,1.0,0,0,286,-0.3839734866933507,0.5
1.0,1.697515845298767,1.0,0,0,287,-1.1506240416739453,0.5
0.0,2.153510570526123,0.0,0,0,288,2.3448265363835303,0.5
1.0,1.7285159826278687,1.0,0,0,289,-0.3982015709242001,0.5
1.0,1.9735130071640015,0.0,0,0,290,1.3415284983191382,0.5
0.0,1.7025158405303955,0.0,0,0,291,-0.5854958404951137,0.5
1.0,1.9625130891799927,1.0,0,0,292,0.5391270758306885,0.5
0.0,1.8425146341323853,0.0,0,0,293,-0.14423917386243312,0.5
1.0,1.6415157318115234,0.0,0,0,294,-1.5271512815802575,0.5
1.0,2.1885101795196533,1.0,0,0,295,0.978147557197286,0.5
1.0,1.7965152263641357,1.0,0,0,296,0.18356587382544676,0.5
1.0,1.8215149641036987,0.0,0,0,297,0.5839551051096926,0.5
0.0,2.0815114974975586,0.0,0,0,298,1.6112925022821034,0.5
0.0,1.81051504611969,0.0,0,0,299,1.3598338402528019,0.5
1.0,1.8145149946212769,1.0,0,0,300,-0.5182629359831514,0.5
0.0,1.740515947341919,0.0,0,0,301,-0.9007918179199591,0.5
1.0,2.0315122604370117,1.0,0,0,302,0.4444128480650968,0.5
1.0,1.835514783859253,0.0,0,0,303,1.2354082093805172,0.5
1.0,1.6895158290863037,1.0,0,0,304,-1.7387484814107488,0.5
1.0,1.8855141401290894,1.0,0,0,305,0.0016471174795248539,0.5
1.0,1.9865127801895142,0.0,0,0,306,-0.14546744282175042,0.5
0.0,1.9335135221481323,0.0,0,0,307,-0.35463906196556766,0.5
1.0,1.8295148611068726,1.0,0,0,308,0.19875264390364572,0.5
1.0,1.8865140676498413,1.0,0,0,309,-0.15050614056306172,0.5
0.0,1.670515775680542,0.0,0,0,310,-0.9523963105521722,0.5
1.0,1.7635157108306885,1.0,0,0,311,-0.19743563331762026,0.5
1.0,1.9165136814117432,1.0,0,0,312,-0.13568101722668913,0.5
0.0,1.7485158443450928,0.0,0,0,313,-0.0790276623172382,0.5
0.0,2.0035126209259033,1.0,0,0,314,0.8277824819259764,0.5
0.0,1.7055158615112305,0.0,0,0,315,-1.3663907872357848,0.5
1.0,1.9165136814117432,1.0,0,0,316,0.005982303734474352,0.5
1.0,1.9835128784179688,1.0,0,0,317,0.22330719398804763,0.5
1.0,1.8675143718719482,1.0,0,0,318,1.2794725132942315,0.5
1.0,1.9865127801895142,1.0,0,0,319,1.4957320051456156,0.5
1.0,1.8255149126052856,1.0,0,0,320,-0.26924102979308745,0.5
1.0,1.7155158519744873,0.0,0,0,321,-0.4471738566557591,0.5
1.0,1.765515685081482,1.0,0,0,322,-0.9895987648699159,0.5
0.0,2.3195085525512695,0.0,0,0,323,1.6260794245333965,0.5
1.0,1.8435146808624268,1.0,0,0,324,0.39273719603696067,0.5
1.0,2.214509963989258,0.0,0,0,325,1.3955555126962274,0.5
0.0,2.0015125274658203,0.0,0,0,326,1.6660445645476596,0.5
0.0,2.145510673522949,0.0,0,0,327,0.753983076801723,0.5
1.0,1.7995152473449707,1.0,0,0,328,-1.5596752799774922,0.5
1.0,1.6625157594680786,1.0,0,0,329,-0.6965452378785525,0.5
0.0,1.7945152521133423,0.0,0,0,330,-0.9027868863097096,0.5
1.0,1.7245159149169922,1.0,0,0,331,-1.6265879290637568,0.5
1.0,2.0025126934051514,1.0,0,0,332,0.8730877036569706,0.5
0.0,1.6925158500671387,0.0,0,0,333,-1.0581398297339406,0.5
1.0,1.6645158529281616,1.0,0,0,334,-1.969045170866017,0.5
1.0,1.89751398563385,1.0,0,0,335,1.1787643426874623,0.5
1.0,1.94951331615448,0.0,0,0,336,-0.2502508362220039,0.5
1.0,1.7485158443450928,1.0,0,0,337,-0.875904403855389,0.5
1.0,2.16351056098938,0.0,0,0,338,1.4606594008765104,0.5
0.0,1.7705155611038208,0.0,0,0,339,-0.8109718195792667,0.5
0.0,2.060511827468872,0.0,0,0,340,1.4004589691261584,0.5
1.0,1.8735142946243286,1.0,0,0,341,-0.9455759129855146,0.5
1.0,1.875514268875122,1.0,0,0,342,-0.7969076321007094,0.5
1.0,1.6885159015655518,1.0,0,0,343,-0.3696001346626735,0.5
0.0,2.058511972427368,0.0,0,0,344,0.22793589169250408,0.5
1.0,1.7475159168243408,1.0,0,0,345,-1.3604381127460996,0.5
1.0,1.6435158252716064,0.0,0,0,346,-1.1313631095233088,0.5
1.0,2.162510633468628,1.0,0,0,347,1.3097629904996444,0.5
1.0,2.009512424468994,0.0,0,0,348,0.9376694399047005,0.5
1.0,1.7175159454345703,0.0,0,0,349,-1.110505425677055,0.5
0.0,1.9435133934020996,0.0,0,0,350,0.5164689981516754,0.5
1.0,1.8595144748687744,1.0,0,0,351,-0.20043611375133807,0.5
1.0,1.7735155820846558,1.0,0,0,352,-0.5195778701119519,0.5
0.0,1.7425159215927124,0.0,0,0,353,-0.7818813791401072,0.5
1.0,1.854514479637146,1.0,0,0,354,-0.21137702861278918,0.5
0.0,1.9665130376815796,0.0,0,0,355,1.0046129400522568,0.5
0.0,1.7265158891677856,0.0,0,0,356,-0.5810179621415007,0.5
0.0,1.8345147371292114,1.0,0,0,357,-1.1915106205233872,0.5
0.0,1.7455159425735474,0.0,0,0,358,-1.194691178081663,0.5
0.0,1.8525145053863525,0.0,0,0,359,-0.5596790318620374,0.5
1.0,1.7925152778625488,1.0,0,0,360,-0.6444032907337601,0.5
1.0,2.015512466430664,1.0,0,0,361,1.8135414781836934,0.5
0.0,1.7255159616470337,0.0,0,0,362,0.3053562622583412,0.5
1.0,1.6655157804489136,1.0,0,0,363,-0.4594577291015257,0.5
1.0,1.7415159940719604,1.0,0,0,364,-1.014210816876096,0.5
1.0,1.6185157299041748,1.0,0,0,365,-1.647587865068398,0.5
1.0,1.7475159168243408,0.0,0,0,366,0.06291727577745988,0.5
1.0,1.7995152473449707,1.0,0,0,367,-0.109140057385134,0.5
0.0,1.7745155096054077,1.0,0,0,368,-1.472557047946746,0.5
1.0,2.103511333465576,1.0,0,0,369,0.6688674819942101,0.5
0.0,1.9315135478973389,1.0,0,0,370,0.8529061619559588,0.5
0.0,1.9995126724243164,0.0,0,0,371,1.0749826074569984,0.5
1.0,2.0475120544433594,0.0,0,0,372,1.3253275993330247,0.5
1.0,1.5705156326293945,1.0,0,0,373,-1.9119846494280728,0.5
1.0,2.2205097675323486,0.0,0,0,374,2.0891444725317196,0.5
1.0,2.023512363433838,1.0,0,0,375,0.9269761092406726,0.5
1.0,1.8205149173736572,1.0,0,0,376,-0.2732323607915954,0.5
0.0,2.114511251449585,0.0,0,0,377,0.7953966655214952,0.5
1.0,1.9365134239196777,1.0,0,0,378,0.232994993403633,0.5
1.0,1.9765129089355469,1.0,0,0,379,-0.15797271302983223,0.5
1.0,1.78751540184021,1.0,0,0,380,0.20390068373085923,0.5
1.0,1.950513243675232,1.0,0,0,381,0.35156013981265377,0.5
1.0,1.923513650894165,1.0,0,0,382,1.934221294850004,0.5
1.0,1.9945127964019775,1.0,0,0,383,0.4008883268152854,0.5
1.0,1.8175150156021118,1.0,0,0,384,-0.31609295173549984,0.5
1.0,1.8185149431228638,1.0,0,0,385,-0.3741257152804457,0.5
1.0,1.8735142946243286,1.0,0,0,386,2.105220148570436,0.5
1.0,1.8085150718688965,0.0,0,0,387,0.18096751193469593,0.5
0.0,1.9985127449035645,0.0,0,0,388,0.29810738188592856,0.5
0.0,1.730515956878662,0.0,0,0,389,0.2293633604291583,0.5
0.0,1.7945152521133423,0.0,0,0,390,0.41109153872630205,0.5
0.0,1.8965139389038086,0.0,0,0,391,-0.3693717954059412,0.5
0.0,1.6405158042907715,0.0,0,0,392,-1.3967195631946194,0.5
1.0,1.7155158519744873,1.0,0,0,393,-0.35676424771132564,0.5
1.0,1.6625157594680786,1.0,0,0,394,-0.9048580797393319,0.5
1.0,1.8715143203735352,1.0,0,0,395,0.42922590025499174,0.5
1.0,1.8855141401290894,1.0,0,0,396,0.03870042009280241,0.5
1.0,1.7545157670974731,0.0,0,0,397,-0.7954105239528205,0.5
0.0,1.6595158576965332,1.0,0,0,398,-0.8826858947529773,0.5
0.0,1.927513599395752,0.0,0,0,399,0.3111374913981683,0.5
1.0,1.9385133981704712,1.0,0,0,400,0.4860697424480154,0.5
1.0,1.7075159549713135,1.0,0,0,401,-0.03473458962103082,0.5
0.0,1.7645156383514404,0.0,0,0,402,-1.241329025871234,0.5
1.0,2.102511405944824,1.0,0,0,403,1.6836514080349296,0.5
1.0,1.7515158653259277,1.0,0,0,404,-0.001571364978588423,0.5
1.0,1.9655131101608276,1.0,0,0,405,0.9222936980406988,0.5
1.0,1.8145149946212769,1.0,0,0,406,0.042676452242074864,0.5
0.0,1.9635131359100342,0.0,0,0,407,0.07370815001024088,0.5
0.0,1.7325159311294556,0.0,0,0,408,-0.986663231818248,0.5
1.0,1.63351571559906,0.0,0,0,409,-1.645185954018196,0.5
1.0,1.7965152263641357,1.0,0,0,410,-0.38801123310247,0.5
1.0,2.0285122394561768,1.0,0,0,411,1.4105131683788268,0.5
1.0,2.009512424468994,1.0,0,0,412,0.2843586927909464,0.5
1.0,1.7975152730941772,1.0,0,0,413,0.35800161380446094,0.5
1.0,1.924513578414917,1.0,0,0,414,0.9305807366788482,0.5
1.0,2.0455121994018555,1.0,0,0,415,0.5119805306582875,0.5
1.0,1.7525157928466797,1.0,0,0,416,-0.3688034835244162,0.5
1.0,1.7605156898498535,1.0,0,0,417,0.03815009672072425,0.5
1.0,1.6805158853530884,1.0,0,0,418,-1.3248249953377778,0.5
1.0,2.118511199951172,1.0,0,0,419,1.3377578077533927,0.5
0.0,1.9655131101608276,1.0,0,0,420,-0.015397413745305566,0.5
0.0,1.8855141401290894,0.0,0,0,421,0.4994912064454235,0.5
1.0,1.968513011932373,0.0,0,0,422,0.0593079882878374,0.5
1.0,1.7025158405303955,0.0,0,0,423,0.40701533229513964,0.5
0.0,1.6635158061981201,0.0,0,0,424,-0.3186936426310043,0.5
1.0,1.9375134706497192,1.0,0,0,425,-0.12219470270587166,0.5
1.0,1.9005138874053955,1.0,0,0,426,0.424867047500783,0.5
1.0,1.7675156593322754,1.0,0,0,427,-0.08871751241850173,0.5
1.0,2.1475107669830322,1.0,0,0,428,1.1145166716787454,0.5
1.0,2.0005125999450684,0.0,0,0,429,0.6505899277341557,0.5
0.0,1.7525157928466797,1.0,0,0,430,0.29409453928187484,0.5
0.0,1.5325156450271606,0.0,0,0,431,-1.9042435746226074,0.5
0.0,1.8655143976211548,1.0,0,0,432,0.3984564494129661,0.5
0.0,1.9315135478973389,0.0,0,0,433,0.826431416113343,0.5
0.0,1.7195159196853638,0.0,0,0,434,-1.1768749182556255,0.5
0.0,1.9065138101577759,0.0,0,0,435,-0.5075967184442649,0.5
0.0,2.161510467529297,0.0,0,0,436,1.51060981832405,0.5
0.0,1.743515968322754,1.0,0,0,437,-0.9626825393993915,0.5
0.0,1.880514144897461,0.0,0,0,438,0.14130279930269543,0.5
0.0,1.7325159311294556,0.0,0,0,439,-1.2633076335495428,0.5
0.0,2.015512466430664,1.0,0,0,440,-0.08295615372137488,0.5
0.0,1.7945152521133423,1.0,0,0,441,-0.6416136967998213,0.5
0.0,1.667515754699707,1.0,0,0,442,-0.671741158475383,0.5
0.0,1.730515956878662,0.0,0,0,443,-0.2804765380408082,0.5
0.0,1.8945139646530151,0.0,0,0,444,0.2217430316176131,0.5
0.0,1.9785128831863403,0.0,0,0,445,0.16069578644528743,0.5
1.0,1.6775158643722534,1.0,0,0,446,-0.6398897827511018,0.5
0.0,1.9195137023925781,0.0,0,0,447,-0.16266518951490902,0.5
0.0,1.967513084411621,0.0,0,0,448,0.07888609001256341,0.5
1.0,1.9265135526657104,1.0,0,0,449,0.887909599066583,0.5
1.0,1.672515869140625,0.0,0,0,450,-1.3865445067328754,0.5
0.0,1.7295159101486206,0.0,0,0,451,-0.6766569228742239,0.5
0.0,1.9665130376815796,0.0,0,0,452,0.10856520786607962,0.5
1.0,1.7325159311294556,1.0,0,0,453,-1.1121651307803102,0.5
1.0,1.8245148658752441,0.0,0,0,454,-0.9669363568722661,0.5
1.0,1.8925139904022217,1.0,0,0,455,-0.16033859141228624,0.5
0.0,2.070511817932129,1.0,0,0,456,0.4535094073614702,0.5
0.0,1.9115138053894043,0.0,0,0,457,1.3055331785240267,0.5
1.0,1.6845158338546753,1.0,0,0,458,-0.6630162407229053,0.5
0.0,1.857514500617981,0.0,0,0,459,0.4689248061790078,0.5
1.0,1.6875158548355103,1.0,0,0,460,-0.018093208452666626,0.5
1.0,2.0415120124816895,0.0,0,0,461,1.4180196801372955,0.5
1.0,2.103511333465576,1.0,0,0,462,0.8388945438267678,0.5
1.0,1.8035151958465576,1.0,0,0,463,0.4183478938178818,0.5
1.0,2.0025126934051514,1.0,0,0,464,0.2235416099170968,0.5
1.0,2.0975112915039062,1.0,0,0,465,1.789872241540856,0.5
1.0,1.8005151748657227,1.0,0,0,466,-0.6458571700665715,0.5
1.0,1.7325159311294556,0.0,0,0,467,-0.4024236774478446,0.5
1.0,1.5435155630111694,1.0,0,0,468,-2.343577043746087,0.5
1.0,1.8425146341323853,1.0,0,0,469,-0.2929659078242816,0.5
1.0,1.8945139646530151,0.0,0,0,470,0.4002145518608948,0.5
0.0,1.5965156555175781,0.0,0,0,471,-1.4321189268087844,0.5
0.0,1.8875141143798828,0.0,0,0,472,-0.4009615788869597,0.5
1.0,2.1415109634399414,1.0,0,0,473,0.8433498571322241,0.5
1.0,1.7675156593322754,1.0,0,0,474,0.2504536928759549,0.5
0.0,2.0065126419067383,1.0,0,0,475,0.43975618378512804,0.5
1.0,1.997512698173523,1.0,0,0,476,0.5344826212953203,0.5
0.0,1.6965159177780151,0.0,0,0,477,0.1317335994949452,0.5
0.0,1.8445146083831787,0.0,0,0,478,0.009080956101879185,0.5
0.0,1.7155158519744873,0.0,0,0,479,-1.025247954458959,0.5
1.0,1.8675143718719482,1.0,0,0,480,1.2000029731087236,0.5
1.0,1.8015152215957642,0.0,0,0,481,0.3868279442629368,0.5
1.0,1.9795129299163818,0.0,0,0,482,0.34452781063582766,0.5
1.0,1.8005151748657227,1.0,0,0,483,-0.5907509049992306,0.5
1.0,2.0475120544433594,0.0,0,0,484,1.5753795244954436,0.5
0.0,1.857514500617981,0.0,0,0,485,0.41385425306243573,0.5
1.0,1.8615144491195679,1.0,0,0,486,-1.1534302687023754,0.5
1.0,2.2255096435546875,1.0,0,0,487,2.2451812025129123,0.5
1.0,2.254509449005127,0.0,0,0,488,2.5415657289653617,0.5
1.0,1.8685142993927002,1.0,0,0,489,-0.5499768374278622,0.5
1.0,2.104511260986328,1.0,0,0,490,0.5413730539139451,0.5
1.0,1.9075138568878174,0.0,0,0,491,-0.2973913542324266,0.5
1.0,1.7555158138275146,1.0,0,0,492,-0.6996695182568882,0.5
1.0,1.8435146808624268,1.0,0,0,493,0.10608970757686564,0.5
1.0,2.0435121059417725,1.0,0,0,494,1.486751080771334,0.5
1.0,2.069511890411377,1.0,0,0,495,0.6724800996777631,0.5
1.0,1.7895153760910034,1.0,0,0,496,0.18791236980747306,0.5
1.0,1.9775129556655884,1.0,0,0,497,1.0477391355098933,0.5
1.0,1.9165136814117432,1.0,0,0,498,-0.3769208023403433,0.5
1.0,1.780515432357788,1.0,0,0,499,-0.5484258825478142,0.5
1.0,1.828514814376831,1.0,0,0,500,-0.4332489660046355,0.5
1.0,1.5433639287948608,1.0,1,0,1,-2.725115233974254,0.5
0.0,1.7603627443313599,0.0,1,0,2,-0.46343042515164284,0.5
0.0,1.870361328125,0.0,1,0,3,-0.08539954600937151,0.5
1.0,1.825361967086792,1.0,1,0,4,0.04879320503858831,0.5
1.0,1.8643614053726196,1.0,1,0,5,1.1704497422961617,0.5
1.0,1.6303640604019165,0.0,1,0,6,-1.792799753826237,0.5
0.0,1.8933610916137695,0.0,1,0,7,0.9444686415172129,0.5
1.0,2.019359588623047,1.0,1,0,8,0.25584504120234797,0.5
0.0,1.9923598766326904,0.0,1,0,9,0.9448785770657578,0.5
0.0,1.918360710144043,0.0,1,0,10,-0.1950556323345979,0.5
0.0,1.5163638591766357,0.0,1,0,11,-1.6680676834038277,0.5
1.0,2.1763575077056885,1.0,1,0,12,1.5674506470037504,0.5
1.0,1.9223606586456299,1.0,1,0,13,0.3775548317196698,0.5
0.0,1.8283618688583374,1.0,1,0,14,2.0433712471362857,0.5
0.0,1.729363203048706,0.0,1,0,15,0.3220724283673359,0.5
0.0,1.8523615598678589,0.0,1,0,16,-0.7890749833103174,0.5
1.0,1.6503641605377197,1.0,1,0,17,-0.37408866000992314,0.5
1.0,1.6553641557693481,1.0,1,0,18,-1.4155506624155616,0.5
1.0,2.234356641769409,1.0,1,0,19,2.8332783231532312,0.5
1.0,1.8933610916137695,1.0,1,0,20,-0.3382563075250068,0.5
1.0,1.7803624868392944,1.0,1,0,21,-0.4328123201298937,0.5
1.0,1.943360447883606,0.0,1,0,22,0.8259053611474194,0.5
0.0,1.68536376953125,0.0,1,0,23,-1.1508722144967038,0.5
0.0,1.561363935470581,0.0,1,0,24,-2.097640620307807,0.5
0.0,1.6833637952804565,1.0,1,0,25,-0.5578909487463212,0.5
0.0,1.571363925933838,1.0,1,0,26,-0.6384749704732451,0.5
0.0,1.8203619718551636,0.0,1,0,27,0.4208297781871659,0.5
1.0,2.0293593406677246,1.0,1,0,28,0.00365543157644699,0.5
0.0,1.9513603448867798,0.0,1,0,29,-0.10402228463716079,0.5
1.0,1.6663639545440674,1.0,1,0,30,-1.2325433055471684,0.5
1.0,1.8593615293502808,1.0,1,0,31,0.37129737982556504,0.5
0.0,1.7423629760742188,0.0,1,0,32,0.22814563469310095,0.5
1.0,1.9383604526519775,0.0,1,0,33,-0.18224422304431884,0.5
0.0,1.5523639917373657,0.0,1,0,34,-1.3358350202210825,0.5
0.0,1.5153639316558838,0.0,1,0,35,-0.24991447466344213,0.5
0.0,1.634364128112793,0.0,1,0,36,0.4653204725168092,0.5
0.0,1.5243638753890991,0.0,1,0,37,-0.7678732263350587,0.5
0.0,1.7153633832931519,0.0,1,0,38,-0.9688973017722431,0.5
0.0,2.236356735229492,0.0,1,0,39,1.8854171840603633,0.5
0.0,1.799362301826477,1.0,1,0,40,-0.16053676879471937,0.5
0.0,1.777362585067749,0.0,1,0,41,0.173889974583889,0.5
0.0,1.6183640956878662,0.0,1,0,42,0.3126626142871608,0.5
1.0,1.6983635425567627,1.0,1,0,43,-1.5686386731249051,0.5
1.0,2.150357723236084,1.0,1,0,44,1.1797577837160635,0.5
0.0,1.567363977432251,0.0,1,0,45,-1.3345308500921615,0.5
0.0,1.8453617095947266,0.0,1,0,46,1.329167801823845,0.5
1.0,1.7863624095916748,1.0,1,0,47,1.1400123640342916,0.5
1.0,1.8653614521026611,0.0,1,0,48,0.8113820448641957,0.5
0.0,2.3973546028137207,0.0,1,0,49,4.086329006427737,0.5
0.0,1.5923640727996826,0.0,1,0,50,-2.020131073737919,0.5
0.0,1.773362636566162,1.0,1,0,51,-1.123644604691528,0.5
0.0,1.8163620233535767,0.0,1,0,52,0.012367961275312107,0.5
1.0,1.8383617401123047,1.0,1,0,53,-0.9612384731412129,0.5
0.0,1.8763612508773804,0.0,1,0,54,0.6802447691288219,0.5
0.0,1.6563640832901,0.0,1,0,55,-0.16543728625753795,0.5
1.0,1.8143620491027832,1.0,1,0,56,0.761945751526604,0.5
1.0,1.8343617916107178,0.0,1,0,57,0.5409818892051848,0.5
0.0,1.6543641090393066,1.0,1,0,58,-0.35341303500362187,0.5
0.0,1.5893640518188477,0.0,1,0,59,-1.5746682087106492,0.5
0.0,1.573364019393921,0.0,1,0,60,0.1815464939459598,0.5
0.0,1.6833637952804565,1.0,1,0,61,-0.5137143716323904,0.5
0.0,1.5683640241622925,0.0,1,0,62,-0.6543554782734191,0.5
0.0,1.9123609066009521,1.0,1,0,63,1.343712294856213,0.5
0.0,1.689363718032837,0.0,1,0,64,0.3564173723617978,0.5
1.0,2.0733587741851807,1.0,1,0,65,0.4403730006190735,0.5
0.0,1.5913640260696411,1.0,1,0,66,-1.2267656542789864,0.5
0.0,1.8523615598678589,0.0,1,0,67,0.8508042137163865,0.5
1.0,1.8463616371154785,1.0,1,0,68,0.011225865712886552,0.5
1.0,1.6493641138076782,1.0,1,0,69,-1.0763213982796485,0.5
1.0,1.8133621215820312,1.0,1,0,70,-0.5571933425104291,0.5
1.0,1.9603602886199951,1.0,1,0,71,0.26971560942363,0.5
0.0,1.9053609371185303,0.0,1,0,72,0.3298921314038861,0.5
1.0,1.8383617401123047,0.0,1,0,73,0.3336721320582509,0.5
0.0,1.821362018585205,0.0,1,0,74,-0.5696406015280945,0.5
1.0,1.6393641233444214,1.0,1,0,75,-0.8130324490394815,0.5
0.0,1.6383640766143799,0.0,1,0,76,-0.1015745054895726,0.5
1.0,2.1143581867218018,1.0,1,0,77,1.2125722672014412,0.5
1.0,2.0703587532043457,1.0,1,0,78,2.409229686185861,0.5
1.0,1.6233640909194946,1.0,1,0,79,-0.5504037705873487,0.5
1.0,1.7223632335662842,1.0,1,0,80,0.8100373177142851,0.5
1.0,1.8143620491027832,0.0,1,0,81,0.04383897642576371,0.5
0.0,2.295355796813965,0.0,1,0,82,1.705806716516377,0.5
0.0,1.9813599586486816,0.0,1,0,83,1.0186708031518594,0.5
0.0,1.773362636566162,1.0,1,0,84,-0.8508805868313408,0.5
0.0,1.7623627185821533,0.0,1,0,85,0.7957766755489287,0.5
0.0,1.5653640031814575,0.0,1,0,86,-0.2843893830437854,0.5
0.0,2.066358804702759,0.0,1,0,87,3.0337827528292176,0.5
0.0,1.6653640270233154,0.0,1,0,88,0.5472926365450328,0.5
0.0,1.7463629245758057,1.0,1,0,89,-0.3602713283872311,0.5
1.0,1.9743599891662598,1.0,1,0,90,0.13232096156446868,0.5
0.0,1.5533639192581177,0.0,1,0,91,-0.0028447049190680955,0.5
1.0,1.9593602418899536,0.0,1,0,92,-0.04709175915261976,0.5
1.0,1.6993635892868042,1.0,1,0,93,-0.6038276480348848,0.5
0.0,1.7213633060455322,0.0,1,0,94,-0.01704328729330336,0.5
1.0,1.9373605251312256,1.0,1,0,95,1.2451872818389351,0.5
1.0,2.06135892868042,0.0,1,0,96,1.2500550139691418,0.5
0.0,1.7863624095916748,1.0,1,0,97,0.8399296904887825,0.5
0.0,1.5513639450073242,0.0,1,0,98,-0.9198566867666482,0.5
1.0,1.9113608598709106,1.0,1,0,99,0.3509051747425611,0.5
1.0,1.6513640880584717,1.0,1,0,100,-0.622254951700973,0.5
0.0,1.829361915588379,1.0,1,0,101,-0.7828537265776848,0.5
0.0,2.0253593921661377,0.0,1,0,102,0.43317310131035425,0.5
1.0,1.6393641233444214,1.0,1,0,103,0.6316821598835346,0.5
1.0,1.6543641090393066,1.0,1,0,104,-1.1578093718318698,0.5
1.0,1.6923636198043823,1.0,1,0,105,0.5919972255477566,0.5
0.0,1.8563615083694458,0.0,1,0,106,0.8460930654249827,0.5
0.0,1.734363079071045,0.0,1,0,107,0.32013029594068465,0.5
1.0,1.7153633832931519,1.0,1,0,108,0.660780091260988,0.5
1.0,1.7503628730773926,0.0,1,0,109,-0.5858141012922083,0.5
0.0,1.9353605508804321,0.0,1,0,110,0.6547464566035303,0.5
0.0,1.8113621473312378,0.0,1,0,111,1.2168568748699167,0.5
1.0,2.2353568077087402,1.0,1,0,112,2.2362582510345224,0.5
1.0,1.9943597316741943,1.0,1,0,113,-0.029816281808004275,0.5
0.0,1.6833637952804565,0.0,1,0,114,0.18494793373932913,0.5
1.0,1.6143640279769897,1.0,1,0,115,-1.4165984439831596,0.5
1.0,1.664363980293274,0.0,1,0,116,-1.2039873845038127,0.5
1.0,1.7383630275726318,1.0,1,0,117,-0.7039498868860231,0.5
0.0,1.9603602886199951,0.0,1,0,118,-0.2282000423707796,0.5
0.0,2.158357620239258,0.0,1,0,119,1.3743116355586034,0.5
0.0,2.1723575592041016,0.0,1,0,120,2.1337060233297596,0.5
1.0,2.0263593196868896,1.0,1,0,121,0.7786411179383187,0.5
1.0,1.6873637437820435,1.0,1,0,122,-0.4654642556611694,0.5
1.0,1.7843624353408813,1.0,1,0,123,-1.08064798033897,0.5
1.0,1.9373605251312256,1.0,1,0,124,0.6663155980835581,0.5
1.0,2.101358413696289,1.0,1,0,125,2.219445627304175,0.5
1.0,1.825361967086792,1.0,1,0,126,-0.09640412118643889,0.5
1.0,2.0433592796325684,1.0,1,0,127,0.6525954286810045,0.5
0.0,1.8323618173599243,0.0,1,0,128,0.8073754327269859,0.5
0.0,1.6663639545440674,1.0,1,0,129,-1.5458445419685918,0.5
0.0,2.1383578777313232,1.0,1,0,130,0.834066858437969,0.5
1.0,1.7713626623153687,1.0,1,0,131,-0.5098203572117115,0.5
0.0,1.6463640928268433,1.0,1,0,132,0.25407728790701667,0.5
1.0,1.9113608598709106,1.0,1,0,133,0.5022672864876733,0.5
0.0,1.6173640489578247,0.0,1,0,134,-1.4809341240458291,0.5
1.0,1.9013609886169434,1.0,1,0,135,1.3368990611156155,0.5
1.0,1.914360761642456,1.0,1,0,136,0.206186551538991,0.5
1.0,1.7433630228042603,1.0,1,0,137,0.016558642427393848,0.5
1.0,1.8603614568710327,1.0,1,0,138,0.4139317761978163,0.5
1.0,1.7753626108169556,1.0,1,0,139,-1.2760212199622485,0.5
0.0,1.968360185623169,0.0,1,0,140,0.6143399264147562,0.5
0.0,1.8973610401153564,0.0,1,0,141,0.587939083848405,0.5
1.0,1.8183619976043701,1.0,1,0,142,0.005087847608071516,0.5
1.0,2.0343592166900635,1.0,1,0,143,1.5748658507627407,0.5
1.0,1.5793640613555908,1.0,1,0,144,-1.8486184388332016,0.5
0.0,1.7103633880615234,1.0,1,0,145,-0.28976041780889106,0.5
1.0,1.9953597784042358,1.0,1,0,146,1.1168281800507138,0.5
0.0,1.8903610706329346,1.0,1,0,147,-0.4827691253913136,0.5
0.0,1.7373631000518799,0.0,1,0,148,-0.5460614976518241,0.5
1.0,1.604364037513733,1.0,1,0,149,-1.9259173005821002,0.5
0.0,1.5113638639450073,0.0,1,0,150,-1.934411697826096,0.5
1.0,1.660364031791687,1.0,1,0,151,-0.16933205953398855,0.5
0.0,1.472363829612732,1.0,1,0,152,-1.9376231472931462,0.5
0.0,1.6533641815185547,0.0,1,0,153,-1.5377256945317095,0.5
1.0,1.9853599071502686,0.0,1,0,154,0.10501739878057575,0.5
1.0,1.9353605508804321,1.0,1,0,155,0.11629120166578123,0.5
1.0,1.681363821029663,0.0,1,0,156,-0.461407740843932,0.5
1.0,2.005359649658203,1.0,1,0,157,1.4970540610048075,0.5
1.0,1.8423616886138916,1.0,1,0,158,-0.8161687140976441,0.5
1.0,1.8603614568710327,1.0,1,0,159,0.06843148015580934,0.5
1.0,1.7363630533218384,1.0,1,0,160,-0.40944323586501086,0.5
1.0,1.8053622245788574,1.0,1,0,161,0.076279704076221,0.5
0.0,1.637364149093628,1.0,1,0,162,0.5623714062620618,0.5
1.0,1.637364149093628,1.0,1,0,163,-0.44959479797027085,0.5
0.0,1.5753639936447144,1.0,1,0,164,-0.9758198242649332,0.5
0.0,1.756362795829773,0.0,1,0,165,-0.30392058508155056,0.5
1.0,1.6953636407852173,1.0,1,0,166,-0.8619138092256357,0.5
1.0,1.567363977432251,1.0,1,0,167,-1.6110689259973952,0.5
1.0,1.7583627700805664,1.0,1,0,168,-0.5466802214201305,0.5
1.0,1.7243632078170776,1.0,1,0,169,0.24993861900374215,0.5
1.0,1.7673627138137817,1.0,1,0,170,-0.345636296889271,0.5
1.0,1.759362816810608,1.0,1,0,171,0.46748969339098356,0.5
1.0,1.9773600101470947,1.0,1,0,172,-0.15911719032272376,0.5
1.0,1.796362280845642,1.0,1,0,173,-0.8461972092549385,0.5
1.0,1.7703626155853271,1.0,1,0,174,-0.4152713258835775,0.5
0.0,1.6233640909194946,0.0,1,0,175,-1.040026652522166,0.5
0.0,1.9893598556518555,1.0,1,0,176,0.6537253580934542,0.5
0.0,1.7853624820709229,0.0,1,0,177,-0.44657812652634893,0.5
0.0,1.7653627395629883,1.0,1,0,178,-0.21861641388726183,0.5
1.0,1.9003609418869019,1.0,1,0,179,0.5453898914476829,0.5
0.0,1.707363486289978,0.0,1,0,180,1.3776518618670794,0.5
1.0,1.7603627443313599,1.0,1,0,181,-0.5537844119666168,0.5
0.0,1.7143633365631104,1.0,1,0,182,1.0186326579121288,0.5
0.0,1.8133621215820312,0.0,1,0,183,0.8801508002538415,0.5
0.0,1.6623640060424805,0.0,1,0,184,0.5212131486735844,0.5
1.0,2.014359474182129,1.0,1,0,185,0.9403950274396905,0.5
1.0,1.6063640117645264,1.0,1,0,186,-0.47205096827043935,0.5
0.0,1.5203639268875122,0.0,1,0,187,-1.7296077920317978,0.5
1.0,2.101358413696289,1.0,1,0,188,0.4505375960108353,0.5
0.0,1.5653640031814575,0.0,1,0,189,-1.381974939533819,0.5
1.0,1.7643626928329468,1.0,1,0,190,1.3498532511350747,0.5
1.0,1.8543615341186523,1.0,1,0,191,2.366507660793907,0.5
0.0,1.6743638515472412,0.0,1,0,192,0.6541857482378117,0.5
0.0,1.7433630228042603,0.0,1,0,193,-1.4581119395555882,0.5
1.0,1.8533616065979004,0.0,1,0,194,0.7843255750131168,0.5
0.0,1.991359829902649,0.0,1,0,195,-0.047344916727950444,0.5
1.0,2.1673574447631836,1.0,1,0,196,1.7611077845386802,0.5
0.0,1.5793640613555908,1.0,1,0,197,-0.4123055072315736,0.5
1.0,2.060359001159668,0.0,1,0,198,1.9222654650479951,0.5
0.0,1.631364107131958,0.0,1,0,199,-0.0033185939551747326,0.5
0.0,1.755362868309021,0.0,1,0,200,0.37549729284248556,0.5
0.0,1.6683639287948608,0.0,1,0,201,-0.06761657845890952,0.5
0.0,2.11335825920105,1.0,1,0,202,1.3531556275858285,0.5
0.0,1.6173640489578247,1.0,1,0,203,0.8044827572785599,0.5
0.0,1.594364047050476,0.0,1,0,204,0.3132079488645518,0.5
1.0,1.6213641166687012,1.0,1,0,205,-1.3435595193618424,0.5
1.0,1.9043610095977783,1.0,1,0,206,-0.6595581797802078,0.5
1.0,2.0913586616516113,1.0,1,0,207,1.2215442274682624,0.5
1.0,1.8973610401153564,1.0,1,0,208,0.0871287702351908,0.5
1.0,1.7283631563186646,1.0,1,0,209,-0.5841563869591041,0.5
1.0,1.9253606796264648,1.0,1,0,210,-0.15579801743176738,0.5
0.0,1.781362533569336,1.0,1,0,211,1.438913050425469,0.5
1.0,1.7953623533248901,1.0,1,0,212,-0.10016313558570147,0.5
0.0,1.7323631048202515,1.0,1,0,213,0.5501427693238117,0.5
0.0,1.497363805770874,0.0,1,0,214,-1.950368323300539,0.5
0.0,1.6963635683059692,0.0,1,0,215,-0.46857889734678737,0.5
1.0,1.5513639450073242,0.0,1,0,216,-2.0195397399763126,0.5
0.0,1.8073621988296509,0.0,1,0,217,0.04569320040217402,0.5
0.0,2.00935959815979,0.0,1,0,218,0.8849772718590951,0.5
0.0,1.4853638410568237,0.0,1,0,219,-0.8044061572934428,0.5
1.0,1.5663639307022095,0.0,1,0,220,-1.191610715266679,0.5
0.0,1.9323606491088867,0.0,1,0,221,-0.2357431002584727,0.5
1.0,2.0313591957092285,0.0,1,0,222,0.4877319382353951,0.5
1.0,1.6363641023635864,1.0,1,0,223,-0.8733455538228495,0.5
1.0,1.8523615598678589,1.0,1,0,224,0.7733277089881235,0.5
1.0,2.004359722137451,1.0,1,0,225,0.6296353862309424,0.5
0.0,1.7183632850646973,1.0,1,0,226,-0.9951122376700516,0.5
0.0,1.7253632545471191,1.0,1,0,227,0.7393939241874957,0.5
1.0,1.6193640232086182,1.0,1,0,228,-1.382289867192166,0.5
0.0,2.104358434677124,0.0,1,0,229,0.6177845314253395,0.5
1.0,1.5913640260696411,1.0,1,0,230,-0.5470768768324177,0.5
1.0,2.0383591651916504,1.0,1,0,231,0.613516149154266,0.5
0.0,1.6763638257980347,0.0,1,0,232,-0.27927509782975735,0.5
1.0,1.9073609113693237,0.0,1,0,233,-0.1193401530227926,0.5
0.0,1.6453641653060913,0.0,1,0,234,-0.608144732625192,0.5
0.0,1.9573602676391602,0.0,1,0,235,1.2294781023470254,0.5
0.0,2.046359062194824,0.0,1,0,236,1.7517525969883514,0.5
1.0,1.7093634605407715,1.0,1,0,237,-0.7214748978290928,0.5
1.0,1.9883599281311035,1.0,1,0,238,0.31127664300748736,0.5
0.0,1.6623640060424805,0.0,1,0,239,-0.8432929756322975,0.5
1.0,1.6153640747070312,1.0,1,0,240,-1.9621620700087126,0.5
0.0,1.8203619718551636,0.0,1,0,241,0.7906769141715164,0.5
0.0,1.5323638916015625,0.0,1,0,242,-1.715084034495983,0.5
1.0,1.8903610706329346,0.0,1,0,243,0.22549148382947648,0.5
1.0,1.870361328125,1.0,1,0,244,-0.07264380924978234,0.5
0.0,1.6053640842437744,1.0,1,0,245,-0.9959882863705382,0.5
1.0,1.9973597526550293,1.0,1,0,246,0.05913622980766661,0.5
0.0,1.5213638544082642,1.0,1,0,247,-1.757899976860794,0.5
0.0,1.70836341381073,0.0,1,0,248,-0.9013501596525003,0.5
1.0,1.6903636455535889,1.0,1,0,249,-0.791808947836677,0.5
1.0,1.625364065170288,1.0,1,0,250,-0.35480665122162125,0.5
1.0,1.939360499382019,1.0,1,0,251,0.5454490786443132,0.5
1.0,1.8673614263534546,0.0,1,0,252,0.296686062371299,0.5
0.0,2.141357898712158,0.0,1,0,253,1.2754117875299003,0.5
0.0,1.844361662864685,0.0,1,0,254,-0.18373190605804016,0.5
1.0,1.7943623065948486,1.0,1,0,255,-0.5831215410941336,0.5
0.0,1.634364128112793,0.0,1,0,256,-0.8818467789658004,0.5
1.0,1.7893624305725098,1.0,1,0,257,-0.4518403313481584,0.5
1.0,1.777362585067749,0.0,1,0,258,-0.6602072073828367,0.5
0.0,1.755362868309021,0.0,1,0,259,-0.19943831551635074,0.5
0.0,1.663364052772522,0.0,1,0,260,-0.5621866357231797,0.5
1.0,1.734363079071045,1.0,1,0,261,1.3444499210253158,0.5
0.0,1.4803638458251953,0.0,1,0,262,-1.0355668025505453,0.5
0.0,2.0783586502075195,0.0,1,0,263,0.3889392793375247,0.5
1.0,1.8643614053726196,1.0,1,0,264,0.6625418538872169,0.5
1.0,1.7093634605407715,1.0,1,0,265,-0.6230479372054821,0.5
0.0,1.6523641347885132,1.0,1,0,266,-0.09984525778961323,0.5
1.0,1.6783638000488281,1.0,1,0,267,-1.1556927148624676,0.5
1.0,1.6693639755249023,0.0,1,0,268,-0.7000539968435903,0.5
0.0,1.9983596801757812,0.0,1,0,269,1.5940893976307133,0.5
1.0,1.89936101436615,1.0,1,0,270,0.08454223749559406,0.5
1.0,1.7183632850646973,1.0,1,0,271,-0.5534268574382613,0.5
1.0,1.7443629503250122,1.0,1,0,272,-0.548105875095107,0.5
1.0,1.7153633832931519,1.0,1,0,273,0.49788146121694976,0.5
0.0,2.1273579597473145,0.0,1,0,274,1.237188234145297,0.5
1.0,1.9313606023788452,0.0,1,0,275,0.40141358922941994,0.5
0.0,1.499363899230957,1.0,1,0,276,-1.4009602295195018,0.5
0.0,1.5683640241622925,1.0,1,0,277,-0.3495314802001413,0.5
0.0,1.664363980293274,0.0,1,0,278,0.5848419650205953,0.5
0.0,1.782362461090088,0.0,1,0,279,-1.0452150154355249,0.5
0.0,1.6363641023635864,0.0,1,0,280,-1.9497709494463995,0.5
0.0,1.7723625898361206,0.0,1,0,281,0.12768659454695888,0.5
1.0,2.014359474182129,1.0,1,0,282,0.3647467341495124,0.5
0.0,1.6323641538619995,0.0,1,0,283,-0.6445423165932535,0.5
0.0,1.781362533569336,0.0,1,0,284,-1.0882903702963624,0.5
0.0,1.8933610916137695,0.0,1,0,285,-0.07536381848428925,0.5
1.0,1.6663639545440674,0.0,1,0,286,-1.4865520772118261,0.5
1.0,1.8503615856170654,0.0,1,0,287,-0.2888350910718622,0.5
0.0,1.5253639221191406,0.0,1,0,288,0.29119492112015866,0.5
1.0,1.8793612718582153,1.0,1,0,289,-0.2160323525567304,0.5
1.0,1.7273632287979126,1.0,1,0,290,-0.3938844039270538,0.5
0.0,2.011359691619873,0.0,1,0,291,0.34151748212665156,0.5
0.0,1.6123640537261963,0.0,1,0,292,0.04918476904662513,0.5
0.0,1.8883610963821411,0.0,1,0,293,-0.07761395303748088,0.5
1.0,2.160357713699341,1.0,1,0,294,1.9978998025748946,0.5
1.0,1.8523615598678589,1.0,1,0,295,-0.09026790112727852,0.5
1.0,1.8493616580963135,0.0,1,0,296,0.132639376966154,0.5
0.0,1.640364170074463,0.0,1,0,297,0.732787903904973,0.5
0.0,1.7873624563217163,0.0,1,0,298,-0.60110874459646,0.5
0.0,1.9303605556488037,0.0,1,0,299,0.6053872938674774,0.5
0.0,1.7863624095916748,0.0,1,0,300,1.5997547587991887,0.5
0.0,1.5593639612197876,0.0,1,0,301,0.3027730918684156,0.5
0.0,2.0353593826293945,0.0,1,0,302,0.8363465036988048,0.5
0.0,1.7753626108169556,0.0,1,0,303,0.22383068496944894,0.5
0.0,1.969360113143921,0.0,1,0,304,1.4394038537083673,0.5
0.0,1.7203632593154907,0.0,1,0,305,-1.1655927066960354,0.5
0.0,2.1173582077026367,0.0,1,0,306,0.6618515721367141,0.5
1.0,1.5153639316558838,1.0,1,0,307,-2.4510867110916457,0.5
1.0,2.019359588623047,1.0,1,0,308,0.8148629277560738,0.5
1.0,1.7053635120391846,1.0,1,0,309,-0.40417269276994605,0.5
1.0,1.68536376953125,0.0,1,0,310,-1.162400374586876,0.5
0.0,1.752362847328186,0.0,1,0,311,0.8168526700220835,0.5
1.0,1.825361967086792,0.0,1,0,312,-0.5511789121624976,0.5
1.0,1.7243632078170776,1.0,1,0,313,-0.14995351635277163,0.5
1.0,2.1183581352233887,1.0,1,0,314,2.0552333295688117,0.5
1.0,1.9983596801757812,1.0,1,0,315,0.17313515107246757,0.5
1.0,1.6213641166687012,1.0,1,0,316,-0.7504896226831818,0.5
1.0,2.0913586616516113,1.0,1,0,317,1.4728751280877712,0.5
1.0,1.9053609371185303,1.0,1,0,318,1.0265866216668382,0.5
1.0,1.8973610401153564,1.0,1,0,319,0.05494475519162696,0.5
1.0,1.7643626928329468,0.0,1,0,320,0.1461263175533152,0.5
0.0,1.7203632593154907,0.0,1,0,321,-1.1202015868491175,0.5
1.0,1.913360834121704,1.0,1,0,322,0.4251860228669254,0.5
1.0,1.822361946105957,1.0,1,0,323,-0.02317151165644599,0.5
1.0,1.7433630228042603,1.0,1,0,324,-0.1895932541517259,0.5
1.0,1.7053635120391846,1.0,1,0,325,-0.3409381090264212,0.5
1.0,1.6683639287948608,1.0,1,0,326,-1.4126712287378864,0.5
1.0,1.7503628730773926,1.0,1,0,327,-1.411857343177697,0.5
0.0,1.6093640327453613,0.0,1,0,328,0.13820677396204345,0.5
1.0,1.7193633317947388,1.0,1,0,329,-0.0022829290261098087,0.5
1.0,1.70836341381073,1.0,1,0,330,0.38189312679750925,0.5
1.0,1.8233619928359985,1.0,1,0,331,0.2719982188991613,0.5
1.0,1.9303605556488037,1.0,1,0,332,0.6091484125095941,0.5
0.0,2.239356517791748,1.0,1,0,333,1.3980354011190324,0.5
0.0,1.6103640794754028,0.0,1,0,334,-1.0404725083957784,0.5
1.0,1.7983622550964355,1.0,1,0,335,0.5705618089104131,0.5
1.0,1.6533641815185547,1.0,1,0,336,-1.1782715285441023,0.5
1.0,1.6953636407852173,1.0,1,0,337,-0.9039810856426412,0.5
1.0,1.8103621006011963,1.0,1,0,338,-0.3730435646028987,0.5
0.0,1.6493641138076782,0.0,1,0,339,-0.28927558594886654,0.5
1.0,1.7793625593185425,1.0,1,0,340,-0.5243048245248687,0.5
0.0,2.153357744216919,0.0,1,0,341,1.8515441452364527,0.5
0.0,1.4433637857437134,0.0,1,0,342,-2.1883343200778014,0.5
1.0,2.0273594856262207,1.0,1,0,343,0.5159264873586834,0.5
0.0,1.7443629503250122,0.0,1,0,344,-1.1213266014460683,0.5
1.0,1.9453604221343994,0.0,1,0,345,0.7612526286176513,0.5
0.0,1.6083641052246094,0.0,1,0,346,-0.527028036612602,0.5
0.0,1.8603614568710327,0.0,1,0,347,0.10710053487835135,0.5
0.0,1.5623639822006226,0.0,1,0,348,0.2267869580102774,0.5
0.0,1.5523639917373657,0.0,1,0,349,-1.0575113363679522,0.5
1.0,1.5103638172149658,1.0,1,0,350,-2.811932681840537,0.5
0.0,2.108358383178711,0.0,1,0,351,0.9361478936375648,0.5
1.0,1.472363829612732,1.0,1,0,352,-2.366976449565338,0.5
1.0,1.8143620491027832,1.0,1,0,353,0.2600399949831291,0.5
0.0,1.8013622760772705,0.0,1,0,354,-0.1752883491467926,0.5
1.0,2.0793585777282715,1.0,1,0,355,1.2998930481032527,0.5
1.0,1.7753626108169556,1.0,1,0,356,-0.18002435544682638,0.5
0.0,1.5993640422821045,0.0,1,0,357,-1.2966980676613835,0.5
1.0,1.782362461090088,1.0,1,0,358,-0.4732010228952122,0.5
1.0,1.8653614521026611,1.0,1,0,359,1.4444966967869197,0.5
1.0,1.9333605766296387,1.0,1,0,360,1.985546448902057,0.5
0.0,1.6163641214370728,0.0,1,0,361,-0.42936617317102177,0.5
0.0,2.239356517791748,0.0,1,0,362,1.438399783877108,0.5
1.0,1.9343605041503906,1.0,1,0,363,0.15232055838990477,0.5
1.0,2.010359525680542,1.0,1,0,364,1.077416603477471,0.5
1.0,1.914360761642456,1.0,1,0,365,0.3714551796144149,0.5
1.0,1.8643614053726196,1.0,1,0,366,1.126887612826296,0.5
0.0,1.729363203048706,0.0,1,0,367,0.9805388660621773,0.5
1.0,1.9673601388931274,1.0,1,0,368,0.2051061162495218,0.5
1.0,2.141357898712158,0.0,1,0,369,1.9397190380321148,0.5
0.0,1.6693639755249023,0.0,1,0,370,-0.18243624937381922,0.5
0.0,1.5563639402389526,0.0,1,0,371,-0.05821686591738995,0.5
0.0,2.012359619140625,0.0,1,0,372,0.44330889720038846,0.5
1.0,2.150357723236084,1.0,1,0,373,1.1091200323420523,0.5
0.0,1.6473641395568848,1.0,1,0,374,-1.3864750702344162,0.5
0.0,1.6323641538619995,0.0,1,0,375,0.18873834338476198,0.5
1.0,1.712363362312317,1.0,1,0,376,-0.22787964880518952,0.5
1.0,1.869361400604248,1.0,1,0,377,0.8015589904853817,0.5
1.0,1.7573628425598145,1.0,1,0,378,0.8050094160305165,0.5
0.0,1.9293606281280518,0.0,1,0,379,0.07413524216461928,0.5
1.0,1.9553602933883667,1.0,1,0,380,1.0486085077873288,0.5
0.0,1.4893637895584106,0.0,1,0,381,-0.8729206405268571,0.5
0.0,1.777362585067749,0.0,1,0,382,-0.9264194295165388,0.5
1.0,1.6073640584945679,1.0,1,0,383,-1.0835739148315053,0.5
1.0,1.778362512588501,1.0,1,0,384,-0.5074521915491372,0.5
0.0,1.7443629503250122,0.0,1,0,385,-0.27616751267213047,0.5
1.0,1.631364107131958,1.0,1,0,386,-0.8241193480723095,0.5
1.0,1.755362868309021,0.0,1,0,387,0.5870643764436614,0.5
0.0,1.8613615036010742,0.0,1,0,388,1.4273346380026375,0.5
1.0,1.7413630485534668,1.0,1,0,389,0.44241430224820827,0.5
1.0,1.851361632347107,1.0,1,0,390,0.5883352500068676,0.5
1.0,2.1683576107025146,1.0,1,0,391,1.2519341167020732,0.5
0.0,1.8503615856170654,1.0,1,0,392,1.0197936776582264,0.5
1.0,1.774362564086914,0.0,1,0,393,-1.2516863884047562,0.5
0.0,1.7933623790740967,0.0,1,0,394,0.8300601528965623,0.5
0.0,1.6873637437820435,0.0,1,0,395,-0.16300034163731572,0.5
0.0,1.570363998413086,0.0,1,0,396,-1.6243658010983972,0.5
1.0,2.108358383178711,0.0,1,0,397,1.6395173332848794,0.5
0.0,1.5253639221191406,1.0,1,0,398,-1.3421594891533895,0.5
0.0,1.8413617610931396,0.0,1,0,399,0.5763384577990146,0.5
0.0,1.68536376953125,1.0,1,0,400,0.44835337098545613,0.5
0.0,1.5263638496398926,1.0,1,0,401,0.5630442175711701,0.5
0.0,1.9073609113693237,1.0,1,0,402,0.6540326601492946,0.5
0.0,1.6183640956878662,1.0,1,0,403,-0.06341176837013421,0.5
0.0,1.7103633880615234,0.0,1,0,404,-0.16380481427869378,0.5
0.0,1.70836341381073,0.0,1,0,405,-0.09185412341621953,0.5
0.0,2.0833587646484375,0.0,1,0,406,1.4638743213666616,0.5
0.0,1.8893611431121826,0.0,1,0,407,0.11019155992504844,0.5
0.0,1.8803611993789673,1.0,1,0,408,1.0508291610150808,0.5
0.0,1.7913624048233032,0.0,1,0,409,0.6666889642265287,0.5
0.0,1.7003635168075562,1.0,1,0,410,-0.6778354189196856,0.5
0.0,1.4303637742996216,0.0,1,0,411,-2.198294249980953,0.5
1.0,1.9103608131408691,1.0,1,0,412,-0.3979283019198476,0.5
0.0,2.0743587017059326,0.0,1,0,413,0.37888858535346076,0.5
1.0,2.011359691619873,0.0,1,0,414,0.33052794567267396,0.5
0.0,1.5823639631271362,0.0,1,0,415,-0.5275658585081057,0.5
0.0,1.6303640604019165,0.0,1,0,416,0.7137080856044365,0.5
1.0,1.8723613023757935,1.0,1,0,417,-0.6260271327204175,0.5
0.0,1.7383630275726318,0.0,1,0,418,0.8673689897655492,0.5
1.0,1.8203619718551636,1.0,1,0,419,0.754880697589752,0.5
1.0,1.8123620748519897,1.0,1,0,420,0.502214804034573,0.5
1.0,1.8053622245788574,1.0,1,0,421,0.6807050738046903,0.5
1.0,1.9473603963851929,1.0,1,0,422,0.5141956534729873,0.5
1.0,2.234356641769409,1.0,1,0,423,1.9051912675619227,0.5
0.0,1.68536376953125,1.0,1,0,424,-1.1740121608049177,0.5
0.0,1.7173633575439453,1.0,1,0,425,-0.5612958755552648,0.5
1.0,1.7873624563217163,1.0,1,0,426,0.6574494106551892,0.5
0.0,2.1683576107025146,0.0,1,0,427,1.2277181279840592,0.5
1.0,1.9503602981567383,1.0,1,0,428,0.7260202753704063,0.5
1.0,2.1763575077056885,1.0,1,0,429,0.9302582714407744,0.5
1.0,1.8893611431121826,0.0,1,0,430,1.1263557580655492,0.5
0.0,1.7373631000518799,0.0,1,0,431,0.77590968477559,0.5
0.0,1.503363847732544,0.0,1,0,432,-1.1235004611879538,0.5
0.0,1.5843640565872192,1.0,1,0,433,0.25257633947065755,0.5
0.0,1.7283631563186646,0.0,1,0,434,0.17495407686498948,0.5
1.0,1.895361065864563,1.0,1,0,435,-0.08162973653783545,0.5
0.0,1.799362301826477,0.0,1,0,436,-0.6393969716936743,0.5
0.0,1.8063621520996094,0.0,1,0,437,1.0330481817458648,0.5
0.0,1.958360195159912,1.0,1,0,438,0.8278740487971162,0.5
1.0,1.558363914489746,1.0,1,0,439,-1.9547024257590764,0.5
0.0,1.7153633832931519,0.0,1,0,440,-0.15866216288286047,0.5
1.0,1.9083609580993652,1.0,1,0,441,0.4594887672667728,0.5
0.0,1.8413617610931396,1.0,1,0,442,0.3904741063711741,0.5
1.0,1.726363182067871,0.0,1,0,443,-1.4606471101744192,0.5
0.0,1.6203640699386597,0.0,1,0,444,0.527530358651132,0.5
0.0,1.9983596801757812,1.0,1,0,445,0.6241868784118815,0.5
0.0,1.822361946105957,0.0,1,0,446,0.2710060326543661,0.5
1.0,1.8713613748550415,1.0,1,0,447,0.07602474640318324,0.5
1.0,1.7253632545471191,1.0,1,0,448,-0.14187602486799955,0.5
1.0,2.0753588676452637,1.0,1,0,449,0.6089477389821649,0.5
0.0,1.729363203048706,0.0,1,0,450,-0.43502446014337065,0.5
0.0,1.8843611478805542,0.0,1,0,451,-0.6918422049661437,0.5
1.0,1.9813599586486816,1.0,1,0,452,0.7669744288884354,0.5
0.0,1.7463629245758057,0.0,1,0,453,0.23148934638319185,0.5
0.0,1.6803637742996216,0.0,1,0,454,-0.5209366392475828,0.5
1.0,1.7023634910583496,1.0,1,0,455,0.09192023465295691,0.5
1.0,1.5773639678955078,1.0,1,0,456,-1.881305520887427,0.5
1.0,1.7213633060455322,1.0,1,0,457,-0.10640863252898568,0.5
1.0,1.640364170074463,1.0,1,0,458,-0.20563307537374909,0.5
1.0,1.8013622760772705,1.0,1,0,459,1.3079473570895335,0.5
1.0,1.5533639192581177,1.0,1,0,460,-0.5706248920841507,0.5
0.0,1.733363151550293,0.0,1,0,461,0.17132848361772818,0.5
0.0,1.6223640441894531,0.0,1,0,462,-1.8441779307442288,0.5
0.0,1.9593602418899536,0.0,1,0,463,0.2323608354959229,0.5
1.0,1.8073621988296509,1.0,1,0,464,0.4064696526191814,0.5
1.0,1.5403639078140259,1.0,1,0,465,-2.3122116165186113,0.5
1.0,1.7673627138137817,1.0,1,0,466,-1.077615187088188,0.5
1.0,2.0383591651916504,1.0,1,0,467,0.6390330763060292,0.5
1.0,1.7063634395599365,1.0,1,0,468,-0.9279181947273994,0.5
1.0,1.8173620700836182,1.0,1,0,469,-0.24933195134434108,0.5
1.0,1.7473629713058472,1.0,1,0,470,-0.6101080963628648,0.5
1.0,2.2683563232421875,1.0,1,0,471,2.1281606015497085,0.5
1.0,1.759362816810608,1.0,1,0,472,-0.3261183146548701,0.5
1.0,1.8353618383407593,0.0,1,0,473,0.4626448985317319,0.5
1.0,1.916360855102539,1.0,1,0,474,0.8924127095502574,0.5
1.0,2.109358310699463,1.0,1,0,475,0.7145798811357522,0.5
0.0,1.9673601388931274,0.0,1,0,476,0.12340147537002524,0.5
1.0,1.781362533569336,1.0,1,0,477,-0.2305555641042361,0.5
1.0,1.6883636713027954,0.0,1,0,478,-0.4165526964795195,0.5
0.0,1.870361328125,0.0,1,0,479,-0.31718558752933584,0.5
0.0,1.6693639755249023,1.0,1,0,480,0.2889322289371654,0.5
0.0,1.916360855102539,0.0,1,0,481,0.971526599302579,0.5
1.0,1.8553615808486938,1.0,1,0,482,-0.16685115474626214,0.5
1.0,1.8153620958328247,1.0,1,0,483,0.9343241981018269,0.5
0.0,1.7863624095916748,0.0,1,0,484,-1.0279009988075714,0.5
1.0,1.9003609418869019,0.0,1,0,485,0.3073549305464911,0.5
0.0,1.8843611478805542,0.0,1,0,486,1.1266791580880418,0.5
1.0,1.6123640537261963,1.0,1,0,487,-1.6222494071071387,0.5
1.0,2.0223593711853027,0.0,1,0,488,0.6947628060115726,0.5
0.0,2.05535888671875,0.0,1,0,489,0.47322780485673627,0.5
0.0,1.6913636922836304,0.0,1,0,490,-0.5723786815376485,0.5
1.0,1.822361946105957,1.0,1,0,491,-0.39309689755104016,0.5
1.0,2.0303592681884766,1.0,1,0,492,0.4700347261532323,0.5
1.0,1.8453617095947266,1.0,1,0,493,1.0233295123307355,0.5
0.0,2.00935959815979,0.0,1,0,494,1.0026084316192119,0.5
1.0,1.6613640785217285,0.0,1,0,495,-1.0570033544747397,0.5
0.0,1.8523615598678589,0.0,1,0,496,-0.4616020108096671,0.5
1.0,1.7643626928329468,1.0,1,0,497,-0.6432334693391283,0.5
0.0,1.7973623275756836,0.0,1,0,498,-0.5794633344947036,0.5
1.0,1.7753626108169556,1.0,1,0,499,-0.5500161398782558,0.5
0.0,1.5203639268875122,0.0,1,0,500,0.15499173815634937,0.5
0.0,1.9824459552764893,0.0,2,0,1,1.3543671175442626,0.5
0.0,1.7024494409561157,0.0,2,0,2,-0.7464876222974113,0.5
1.0,1.8004481792449951,0.0,2,0,3,1.613113190633539,0.5
0.0,1.7704485654830933,0.0,2,0,4,0.28746269093531457,0.5
1.0,1.8194479942321777,1.0,2,0,5,-0.032478112266902566,0.5
1.0,1.8674473762512207,1.0,2,0,6,0.41889532943721214,0.5
1.0,1.4944508075714111,1.0,2,0,7,-0.45281284867974236,0.5
1.0,1.7454489469528198,1.0,2,0,8,0.5124562798152572,0.5
0.0,2.035445213317871,0.0,2,0,9,1.405182256142274,0.5
1.0,1.6494501829147339,1.0,2,0,10,-0.7486242227890462,0.5
1.0,1.760448694229126,1.0,2,0,11,1.2639236602252526,0.5
1.0,1.8164479732513428,1.0,2,0,12,0.5234137916782678,0.5
0.0,1.64145028591156,0.0,2,0,13,0.39434543607424893,0.5
0.0,1.5294508934020996,1.0,2,0,14,-0.8173212600858701,0.5
0.0,2.1114442348480225,0.0,2,0,15,2.4706128635724913,0.5
1.0,1.5534509420394897,1.0,2,0,16,-1.2466273802457744,0.5
0.0,1.7694486379623413,0.0,2,0,17,0.5337296610865112,0.5
1.0,1.6954495906829834,1.0,2,0,18,0.22945973976377834,0.5
1.0,1.6364502906799316,1.0,2,0,19,1.207873345752985,0.5
1.0,1.5564509630203247,1.0,2,0,20,-1.430186808062186,0.5
1.0,1.6724498271942139,1.0,2,0,21,0.6323195761706145,0.5
1.0,1.7614487409591675,1.0,2,0,22,0.5065717641867948,0.5
0.0,1.5624510049819946,0.0,2,0,23,0.5255907832692133,0.5
0.0,1.574450969696045,1.0,2,0,24,-0.9908728070546731,0.5
0.0,1.6874496936798096,0.0,2,0,25,0.8704809171149283,0.5
0.0,1.690449595451355,1.0,2,0,26,0.1791341890598516,0.5
0.0,1.4474507570266724,0.0,2,0,27,-0.3378656300732575,0.5
1.0,1.8404476642608643,1.0,2,0,28,1.3568367903204948,0.5
0.0,1.6174505949020386,0.0,2,0,29,0.22242705332259724,0.5
0.0,1.5924508571624756,1.0,2,0,30,-0.733804814245355,0.5
1.0,1.9614461660385132,1.0,2,0,31,0.45457553131200096,0.5
1.0,1.6404502391815186,1.0,2,0,32,-0.1826375540236759,0.5
1.0,1.3504506349563599,1.0,2,0,33,-2.977073307582813,0.5
1.0,1.737449049949646,1.0,2,0,34,-0.1800419678708709,0.5
0.0,1.8104480504989624,0.0,2,0,35,0.7614487276403056,0.5
1.0,1.4714508056640625,1.0,2,0,36,-0.8734522083991584,0.5
0.0,1.501450777053833,1.0,2,0,37,-1.3527082867134987,0.5
1.0,1.7474489212036133,1.0,2,0,38,-0.518597823318631,0.5
0.0,1.9244465827941895,1.0,2,0,39,2.486352803442447,0.5
1.0,1.6494501829147339,0.0,2,0,40,0.31360319240907986,0.5
0.0,1.873447299003601,0.0,2,0,41,2.8578584213379137,0.5
0.0,1.534450888633728,0.0,2,0,42,-0.2984058077601223,0.5
0.0,2.04044508934021,0.0,2,0,43,1.847005157638414,0.5
1.0,1.5864509344100952,1.0,2,0,44,-0.006758432760847771,0.5
1.0,1.5964508056640625,1.0,2,0,45,0.22414135985552947,0.5
1.0,1.7834484577178955,1.0,2,0,46,-0.02869795337192931,0.5
1.0,1.8274478912353516,1.0,2,0,47,0.569953934787952,0.5
1.0,1.7184492349624634,1.0,2,0,48,-0.38412151100791847,0.5
1.0,1.5844509601593018,1.0,2,0,49,0.3447778486441728,0.5
0.0,1.593450903892517,0.0,2,0,50,-1.1181530029361746,0.5
0.0,1.5184508562088013,0.0,2,0,51,-0.8808015917081411,0.5
0.0,1.6554501056671143,0.0,2,0,52,-0.9939741972668317,0.5
1.0,1.6574500799179077,1.0,2,0,53,0.31879310223090224,0.5
1.0,1.804448127746582,1.0,2,0,54,0.5874245194905718,0.5
0.0,1.3764506578445435,1.0,2,0,55,-1.3574965722306804,0.5
1.0,1.759448766708374,0.0,2,0,56,0.054958359222281934,0.5
0.0,1.6304503679275513,0.0,2,0,57,-0.33423273239791257,0.5
1.0,1.6624499559402466,1.0,2,0,58,-0.3102593228016551,0.5
1.0,1.6224504709243774,1.0,2,0,59,-0.39861651858320496,0.5
1.0,1.6994495391845703,1.0,2,0,60,-0.49041229100675027,0.5
1.0,1.5414509773254395,1.0,2,0,61,-0.2509538568060542,0.5
1.0,1.8674473762512207,1.0,2,0,62,0.42004938372151873,0.5
1.0,1.7424489259719849,1.0,2,0,63,-0.23065085602164478,0.5
1.0,1.5834510326385498,1.0,2,0,64,-0.15499159123993203,0.5
1.0,1.537450909614563,0.0,2,0,65,-0.8538760403798251,0.5
0.0,1.8884470462799072,1.0,2,0,66,0.20799685419778813,0.5
0.0,1.5694509744644165,0.0,2,0,67,1.062873011114692,0.5
0.0,1.5754510164260864,0.0,2,0,68,-0.9894764136172228,0.5
0.0,1.5234508514404297,0.0,2,0,69,0.10022281179403314,0.5
0.0,1.5224509239196777,0.0,2,0,70,-0.2777735617771779,0.5
1.0,1.8024481534957886,1.0,2,0,71,1.1879066774881608,0.5
1.0,1.6344503164291382,0.0,2,0,72,0.6241079637898831,0.5
0.0,1.6034507751464844,0.0,2,0,73,-0.6190186706539295,0.5
1.0,1.4824508428573608,1.0,2,0,74,-1.8116368118849375,0.5
1.0,1.6304503679275513,1.0,2,0,75,-0.2993658173126766,0.5
0.0,1.5864509344100952,0.0,2,0,76,-1.2503700080389242,0.5
1.0,1.3914506435394287,1.0,2,0,77,-2.1885777273410545,0.5
1.0,1.9594461917877197,0.0,2,0,78,0.9277884782132658,0.5
1.0,2.218442916870117,1.0,2,0,79,2.3871461895931447,0.5
0.0,1.830447793006897,0.0,2,0,80,1.020699729213705,0.5
1.0,1.6984494924545288,1.0,2,0,81,-0.99741456593523,0.5
0.0,1.593450903892517,0.0,2,0,82,-0.08399902659180322,0.5
0.0,1.6004507541656494,1.0,2,0,83,-0.7731663806259793,0.5
0.0,1.4244506359100342,1.0,2,0,84,-0.6639242821119072,0.5
1.0,1.6884496212005615,1.0,2,0,85,-0.6694667422552918,0.5
0.0,1.4854507446289062,0.0,2,0,86,-0.0775687466050383,0.5
1.0,1.8274478912353516,1.0,2,0,87,0.8279846106008532,0.5
1.0,1.5294508934020996,1.0,2,0,88,-1.6745664525915334,0.5
1.0,1.6654499769210815,1.0,2,0,89,0.5997215132867291,0.5
1.0,1.5954508781433105,1.0,2,0,90,-0.0075327923842030044,0.5
1.0,1.57145094871521,1.0,2,0,91,0.2918644665711061,0.5
1.0,1.7584487199783325,1.0,2,0,92,1.0355430756390718,0.5
1.0,1.5614509582519531,1.0,2,0,93,-1.1767126172876103,0.5
1.0,1.7454489469528198,1.0,2,0,94,0.07249460557975773,0.5
1.0,1.6514501571655273,1.0,2,0,95,-0.12408000711795288,0.5
1.0,1.6314504146575928,1.0,2,0,96,-0.8905081274186105,0.5
1.0,1.8024481534957886,1.0,2,0,97,0.3569453368728284,0.5
1.0,1.645450234413147,1.0,2,0,98,0.4415318164324475,0.5
1.0,1.6274504661560059,1.0,2,0,99,1.0487785825529996,0.5
0.0,1.7484488487243652,0.0,2,0,100,0.07976109543329325,0.5
1.0,1.9834458827972412,1.0,2,0,101,1.247881527429607,0.5
1.0,1.991445779800415,1.0,2,0,102,0.7568013454310812,0.5
1.0,1.6104506254196167,1.0,2,0,103,-0.5576909927819504,0.5
1.0,1.57145094871521,1.0,2,0,104,-0.8111203935078728,0.5
1.0,1.4684507846832275,1.0,2,0,105,-1.4007904230809165,0.5
1.0,1.5024508237838745,0.0,2,0,106,-1.14067078325057,0.5
1.0,1.6744498014450073,1.0,2,0,107,-0.5755075156482938,0.5
1.0,1.5854510068893433,1.0,2,0,108,0.612020534018936,0.5
1.0,1.7044494152069092,1.0,2,0,109,0.7468698622715375,0.5
1.0,1.8214479684829712,1.0,2,0,110,1.7779494280775472,0.5
1.0,1.5874509811401367,1.0,2,0,111,-1.1473228516140965,0.5
1.0,1.6834497451782227,0.0,2,0,112,-0.4061466208795387,0.5
0.0,1.8094481229782104,0.0,2,0,113,0.3448245029452483,0.5
0.0,1.7944482564926147,0.0,2,0,114,-0.14954255107166697,0.5
0.0,2.047445058822632,0.0,2,0,115,1.5813444673696697,0.5
1.0,1.6134506464004517,0.0,2,0,116,-0.4975161993074636,0.5
0.0,1.7974482774734497,0.0,2,0,117,0.8766594112905761,0.5
1.0,1.741448998451233,1.0,2,0,118,0.22573430578900686,0.5
1.0,1.7684485912322998,0.0,2,0,119,0.9514536602548276,0.5
1.0,1.7244491577148438,1.0,2,0,120,0.03940222121281039,0.5
0.0,1.4874508380889893,0.0,2,0,121,-0.601353260450861,0.5
0.0,1.7804484367370605,1.0,2,0,122,-0.29907584502179296,0.5
0.0,1.5814509391784668,0.0,2,0,123,0.1623488204132909,0.5
1.0,1.5164508819580078,1.0,2,0,124,-0.49905433981596325,0.5
1.0,1.829447865486145,1.0,2,0,125,1.1336869519774824,0.5
0.0,1.8154480457305908,0.0,2,0,126,0.1435202377164817,0.5
1.0,1.8284478187561035,1.0,2,0,127,-0.28039471713726755,0.5
1.0,1.4354506731033325,1.0,2,0,128,-1.5196973647877823,0.5
1.0,1.4984508752822876,1.0,2,0,129,-0.9766019456268934,0.5
1.0,1.778448462486267,0.0,2,0,130,0.4818914987466946,0.5
0.0,1.5424509048461914,0.0,2,0,131,1.3170783167531481,0.5
1.0,1.7714486122131348,1.0,2,0,132,0.050161372904667885,0.5
0.0,1.69344961643219,0.0,2,0,133,-0.6928993950641283,0.5
1.0,1.8594474792480469,0.0,2,0,134,0.26650537737303576,0.5
0.0,1.8024481534957886,0.0,2,0,135,-0.008531131132677436,0.5
0.0,1.8004481792449951,0.0,2,0,136,1.0338295061507854,0.5
0.0,1.9314465522766113,0.0,2,0,137,0.7526549332369432,0.5
1.0,1.5124508142471313,1.0,2,0,138,-0.34194774470757167,0.5
1.0,1.8404476642608643,0.0,2,0,139,0.9270950901627857,0.5
0.0,1.8374477624893188,1.0,2,0,140,0.3966153540520459,0.5
0.0,1.6104506254196167,0.0,2,0,141,-0.3432911717843602,0.5
1.0,1.6954495906829834,1.0,2,0,142,-0.3903326624328717,0.5
0.0,1.473450779914856,0.0,2,0,143,-1.1529566468851276,0.5
1.0,1.5554509162902832,0.0,2,0,144,0.09367873884379328,0.5
1.0,1.7754485607147217,1.0,2,0,145,0.7874065068470713,0.5
1.0,1.5874509811401367,0.0,2,0,146,0.1320195134401008,0.5
0.0,1.5694509744644165,0.0,2,0,147,-1.005279339640568,0.5
1.0,1.5254509449005127,1.0,2,0,148,-0.34435540869349685,0.5
1.0,1.5624510049819946,0.0,2,0,149,-0.40758575747094855,0.5
1.0,1.4554507732391357,1.0,2,0,150,-0.9798990782376795,0.5
0.0,1.694449543952942,0.0,2,0,151,-0.9034116048397202,0.5
1.0,1.7924482822418213,1.0,2,0,152,0.5432243557031907,0.5
1.0,1.7094494104385376,0.0,2,0,153,-0.3946997905994574,0.5
0.0,2.078444719314575,0.0,2,0,154,2.0722038528596856,0.5
1.0,1.620450496673584,1.0,2,0,155,-0.13388539127004767,0.5
1.0,1.7104493379592896,1.0,2,0,156,-0.03251632533565083,0.5
1.0,1.403450608253479,1.0,2,0,157,-1.4208943420327889,0.5
0.0,1.7584487199783325,0.0,2,0,158,-0.4563875054654575,0.5
1.0,1.7244491577148438,1.0,2,0,159,0.38845190999724605,0.5
1.0,1.830447793006897,1.0,2,0,160,0.7249860991154812,0.5
1.0,1.574450969696045,1.0,2,0,161,0.6830381832844354,0.5
1.0,1.8174480199813843,0.0,2,0,162,-0.04441956464270663,0.5
0.0,1.6774498224258423,0.0,2,0,163,-0.9995975157327315,0.5
0.0,1.5784510374069214,0.0,2,0,164,-0.956419013318235,0.5
1.0,1.781448483467102,1.0,2,0,165,1.5233543746503115,0.5
1.0,2.082444667816162,0.0,2,0,166,2.026650756812609,0.5
1.0,1.497450828552246,1.0,2,0,167,-1.3240159732268633,0.5
1.0,1.5904508829116821,1.0,2,0,168,-0.9120929522632528,0.5
1.0,1.8454476594924927,1.0,2,0,169,1.113986265467654,0.5
1.0,1.6394503116607666,1.0,2,0,170,0.3609456145366514,0.5
1.0,1.5904508829116821,1.0,2,0,171,0.4171322378157117,0.5
1.0,1.7354490756988525,1.0,2,0,172,2.4861331193254768,0.5
1.0,1.510450839996338,1.0,2,0,173,-0.4735795593458271,0.5
1.0,1.825447916984558,1.0,2,0,174,0.6411247451097127,0.5
1.0,2.042445182800293,1.0,2,0,175,2.097122837071578,0.5
1.0,1.4194506406784058,0.0,2,0,176,-1.3016602003702065,0.5
1.0,1.9054468870162964,1.0,2,0,177,0.5720621953258752,0.5
1.0,1.5804510116577148,1.0,2,0,178,-0.7575356571494357,0.5
1.0,1.6004507541656494,1.0,2,0,179,-1.2241296962073644,0.5
1.0,1.57145094871521,1.0,2,0,180,0.5021552933971589,0.5
1.0,1.7584487199783325,0.0,2,0,181,1.1509462862946407,0.5
0.0,1.8534475564956665,0.0,2,0,182,0.07640369104363309,0.5
0.0,2.0554449558258057,0.0,2,0,183,1.4198470583273488,0.5
0.0,1.6124505996704102,0.0,2,0,184,-0.3024584025759363,0.5
0.0,1.4774508476257324,0.0,2,0,185,-0.8879021377448227,0.5
0.0,2.034445285797119,0.0,2,0,186,2.4085249504871817,0.5
1.0,1.7884483337402344,1.0,2,0,187,1.2960515335524296,0.5
1.0,1.6044507026672363,1.0,2,0,188,0.7685961767495505,0.5
1.0,1.503450870513916,1.0,2,0,189,-1.1977656858806982,0.5
0.0,1.5874509811401367,0.0,2,0,190,-1.0472052748339038,0.5
0.0,1.8094481229782104,0.0,2,0,191,1.0575725559413212,0.5
0.0,1.755448818206787,0.0,2,0,192,0.607244715955207,0.5
1.0,1.5624510049819946,0.0,2,0,193,-0.759354410403132,0.5
1.0,1.8064481019973755,0.0,2,0,194,-0.15718373339103942,0.5
0.0,1.5594509840011597,0.0,2,0,195,0.715907490712664,0.5
0.0,1.3584506511688232,0.0,2,0,196,-2.4949167649174995,0.5
0.0,1.7094494104385376,0.0,2,0,197,0.771966906434473,0.5
1.0,1.433450698852539,1.0,2,0,198,-2.026268741872612,0.5
1.0,1.689449667930603,1.0,2,0,199,0.7380676764817239,0.5
1.0,1.4864507913589478,1.0,2,0,200,-0.43258119517395477,0.5
1.0,1.6304503679275513,1.0,2,0,201,0.18722945196980337,0.5
1.0,1.6704498529434204,1.0,2,0,202,-0.244058922623344,0.5
1.0,1.7744485139846802,0.0,2,0,203,0.8373913964927033,0.5
0.0,1.7264491319656372,0.0,2,0,204,1.554228202783866,0.5
0.0,1.430450677871704,0.0,2,0,205,-1.19534006513795,0.5
1.0,1.5264508724212646,1.0,2,0,206,-1.0479077291032968,0.5
1.0,1.8464477062225342,0.0,2,0,207,-0.032160710118421094,0.5
0.0,1.500450849533081,0.0,2,0,208,0.2531680390501804,0.5
0.0,1.898447036743164,0.0,2,0,209,1.4257227105174541,0.5
0.0,1.5774509906768799,0.0,2,0,210,-0.6515341190147385,0.5
0.0,1.850447654724121,0.0,2,0,211,0.13978948630981722,0.5
0.0,2.038445234298706,0.0,2,0,212,1.5046468130813595,0.5
0.0,1.9844458103179932,0.0,2,0,213,1.1361216812636796,0.5
0.0,1.5224509239196777,0.0,2,0,214,-1.3508687756663966,0.5
0.0,1.623450517654419,0.0,2,0,215,-1.5064520937817525,0.5
1.0,1.7394490242004395,1.0,2,0,216,-0.6069495886831912,0.5
1.0,1.8724472522735596,0.0,2,0,217,0.34889072727727133,0.5
0.0,1.950446367263794,0.0,2,0,218,1.1368430485907468,0.5
1.0,1.5384509563446045,1.0,2,0,219,-0.4780524855478584,0.5
1.0,1.7474489212036133,0.0,2,0,220,1.2112457985377907,0.5
1.0,1.5624510049819946,1.0,2,0,221,-0.9807007734742277,0.5
1.0,1.671449899673462,1.0,2,0,222,-0.5446837079374813,0.5
1.0,1.8164479732513428,1.0,2,0,223,-0.3528197460803763,0.5
1.0,1.5304509401321411,1.0,2,0,224,-1.0364773636981859,0.5
1.0,1.9554462432861328,1.0,2,0,225,1.7281425500465397,0.5
1.0,1.7064493894577026,1.0,2,0,226,1.4458651468784978,0.5
1.0,1.8024481534957886,0.0,2,0,227,0.07160605524233143,0.5
1.0,1.6154506206512451,1.0,2,0,228,0.2987414540481929,0.5
1.0,1.568450927734375,1.0,2,0,229,-0.7089924409695009,0.5
1.0,1.7074494361877441,1.0,2,0,230,0.9410157888013339,0.5
1.0,1.7054494619369507,1.0,2,0,231,0.25937144698770126,0.5
0.0,1.7734485864639282,0.0,2,0,232,0.5428872904626809,0.5
1.0,1.4804507493972778,1.0,2,0,233,-1.6401277390485132,0.5
1.0,1.7054494619369507,1.0,2,0,234,0.5285687347569183,0.5
1.0,1.5174508094787598,1.0,2,0,235,-0.2659117341895341,0.5
1.0,1.5824509859085083,0.0,2,0,236,-0.343149463274337,0.5
0.0,1.476450800895691,0.0,2,0,237,-0.7824738084447876,0.5
1.0,2.0274453163146973,1.0,2,0,238,1.173646936172938,0.5
0.0,1.5564509630203247,0.0,2,0,239,-0.023267970291995982,0.5
0.0,1.8004481792449951,0.0,2,0,240,0.8297785638809885,0.5
1.0,1.8224478960037231,1.0,2,0,241,1.2718599938163833,0.5
1.0,1.6724498271942139,1.0,2,0,242,-0.45998507815565015,0.5
1.0,1.570451021194458,1.0,2,0,243,0.32047520298557586,0.5
1.0,1.7074494361877441,1.0,2,0,244,0.252693245301406,0.5
1.0,1.5444508790969849,0.0,2,0,245,-0.5113652008822119,0.5
0.0,1.5884509086608887,0.0,2,0,246,-0.4334636626497596,0.5
1.0,1.6054507493972778,0.0,2,0,247,-1.1473306320651302,0.5
1.0,1.506450891494751,1.0,2,0,248,-0.8177601165787384,0.5
1.0,1.564450979232788,1.0,2,0,249,-0.9851784610099702,0.5
0.0,1.4634507894515991,0.0,2,0,250,-1.1679692294636588,0.5
1.0,1.6874496936798096,1.0,2,0,251,0.8048669488931925,0.5
1.0,1.7584487199783325,1.0,2,0,252,-0.5655318720963475,0.5
1.0,1.6214505434036255,1.0,2,0,253,-0.31092221985386054,0.5
0.0,1.409450650215149,0.0,2,0,254,-2.0806734755039717,0.5
1.0,1.9084467887878418,1.0,2,0,255,1.2248304951813973,0.5
1.0,1.7904483079910278,1.0,2,0,256,0.4145303747316844,0.5
0.0,1.8804471492767334,0.0,2,0,257,0.08705256995159567,0.5
1.0,1.903446912765503,0.0,2,0,258,0.8111006903182908,0.5
0.0,1.6054507493972778,0.0,2,0,259,-0.39035210891668726,0.5
0.0,1.5224509239196777,0.0,2,0,260,-0.5008686239274052,0.5
1.0,1.686449646949768,1.0,2,0,261,-1.1023717173894079,0.5
1.0,1.443450689315796,1.0,2,0,262,-0.9422553548888105,0.5
1.0,1.6954495906829834,1.0,2,0,263,0.628921633750741,0.5
1.0,1.5364508628845215,1.0,2,0,264,-0.0864816089946865,0.5
1.0,1.5924508571624756,1.0,2,0,265,-0.32629836138781815,0.5
1.0,1.8344478607177734,1.0,2,0,266,0.2630155194466626,0.5
1.0,1.7244491577148438,1.0,2,0,267,0.7895836702429342,0.5
1.0,2.1634435653686523,1.0,2,0,268,2.5370611640081093,0.5
1.0,1.9804458618164062,1.0,2,0,269,1.0816850117676067,0.5
1.0,1.8934470415115356,1.0,2,0,270,0.8170056348118524,0.5
1.0,1.8474476337432861,1.0,2,0,271,0.3953543355426711,0.5
1.0,1.6444501876831055,1.0,2,0,272,-1.0541555033740526,0.5
1.0,1.6284503936767578,1.0,2,0,273,-0.7360196331914209,0.5
1.0,1.7324490547180176,1.0,2,0,274,1.1219232662610064,0.5
1.0,1.712449312210083,1.0,2,0,275,0.08464678013452794,0.5
1.0,1.433450698852539,1.0,2,0,276,-1.586490732909294,0.5
1.0,1.694449543952942,1.0,2,0,277,0.23662959772791176,0.5
1.0,1.6494501829147339,1.0,2,0,278,0.4120621915586817,0.5
1.0,1.7724485397338867,1.0,2,0,279,-0.12369070823972268,0.5
1.0,1.8344478607177734,1.0,2,0,280,0.32377965467410713,0.5
1.0,1.4994508028030396,1.0,2,0,281,-0.6545358994973135,0.5
1.0,1.873447299003601,0.0,2,0,282,1.1575231827024635,0.5
0.0,1.6044507026672363,0.0,2,0,283,0.5883087859616793,0.5
0.0,2.0744447708129883,0.0,2,0,284,1.6476986642623843,0.5
1.0,1.763448715209961,1.0,2,0,285,-0.5183228370081632,0.5
0.0,1.574450969696045,0.0,2,0,286,-0.4561236242278603,0.5
1.0,2.0584449768066406,1.0,2,0,287,1.3375679710224253,0.5
1.0,1.759448766708374,1.0,2,0,288,1.2316956808858972,0.5
1.0,1.9044468402862549,0.0,2,0,289,0.9654107036668789,0.5
0.0,1.5624510049819946,0.0,2,0,290,0.7813507723760368,0.5
1.0,1.7924482822418213,1.0,2,0,291,0.4500211721506754,0.5
1.0,1.3334506750106812,1.0,2,0,292,-3.5241694277570543,0.5
0.0,1.8094481229782104,1.0,2,0,293,0.8312989056045401,0.5
1.0,1.5024508237838745,0.0,2,0,294,-0.7243541764960221,0.5
0.0,1.5824509859085083,0.0,2,0,295,0.09664567176481856,0.5
1.0,1.6484501361846924,1.0,2,0,296,-0.9346121901444919,0.5
1.0,1.9114468097686768,1.0,2,0,297,0.7549353319593848,0.5
1.0,1.6974495649337769,0.0,2,0,298,0.49779873451326295,0.5
0.0,1.7724485397338867,0.0,2,0,299,0.44100390799854106,0.5
1.0,1.6504501104354858,1.0,2,0,300,-0.37569417708192937,0.5
0.0,1.8014482259750366,0.0,2,0,301,-0.34381141559136813,0.5
1.0,1.9814459085464478,1.0,2,0,302,0.6183686078235546,0.5
1.0,1.473450779914856,1.0,2,0,303,-1.981812392001549,0.5
1.0,1.543450951576233,0.0,2,0,304,-1.1920022341261238,0.5
0.0,2.037445068359375,1.0,2,0,305,0.8573725481372461,0.5
0.0,1.6444501876831055,0.0,2,0,306,0.8070865583981116,0.5
1.0,1.6174505949020386,1.0,2,0,307,-0.21400900082578722,0.5
1.0,1.9844458103179932,1.0,2,0,308,1.7856194906627356,0.5
1.0,1.7514488697052002,1.0,2,0,309,1.4361720630903603,0.5
1.0,1.4824508428573608,1.0,2,0,310,-1.0710071647838852,0.5
0.0,1.9074468612670898,0.0,2,0,311,0.7133840594290203,0.5
0.0,1.4714508056640625,1.0,2,0,312,-1.7282617512347822,0.5
0.0,1.6834497451782227,1.0,2,0,313,-1.027874178924385,0.5
0.0,1.8804471492767334,0.0,2,0,314,1.950006458629052,0.5
1.0,1.5194509029388428,1.0,2,0,315,-1.8950418361601278,0.5
1.0,1.6324503421783447,1.0,2,0,316,-0.7028019606063464,0.5
0.0,1.623450517654419,0.0,2,0,317,-1.2337819842891067,0.5
1.0,1.9184467792510986,1.0,2,0,318,2.362748735360244,0.5
0.0,1.6034507751464844,0.0,2,0,319,0.025294711853357885,0.5
1.0,1.6024507284164429,1.0,2,0,320,0.11991228173804268,0.5
1.0,1.7184492349624634,1.0,2,0,321,-0.15775235845935445,0.5
1.0,1.5634509325027466,0.0,2,0,322,-1.1813489990992385,0.5
1.0,1.7144492864608765,1.0,2,0,323,0.7341859536390423,0.5
1.0,1.5194509029388428,0.0,2,0,324,-1.4542207484172065,0.5
0.0,1.7984482049942017,1.0,2,0,325,0.1902360574697319,0.5
0.0,1.7304490804672241,0.0,2,0,326,-0.19001418796234995,0.5
1.0,1.7214492559432983,1.0,2,0,327,0.21030017059611733,0.5
1.0,1.6594500541687012,1.0,2,0,328,-0.45088087015978745,0.5
1.0,1.5444508790969849,1.0,2,0,329,-1.4431571194021753,0.5
1.0,1.4584507942199707,0.0,2,0,330,-1.1414303464724562,0.5
1.0,2.1094441413879395,1.0,2,0,331,1.7086497384336798,0.5
1.0,1.437450647354126,1.0,2,0,332,-1.8415777116150898,0.5
1.0,1.4614508152008057,1.0,2,0,333,-0.8355039048366786,0.5
0.0,1.5964508056640625,0.0,2,0,334,0.5892067556718236,0.5
1.0,2.0094456672668457,0.0,2,0,335,1.1588840838867058,0.5
0.0,1.8454476594924927,0.0,2,0,336,0.1376438496082603,0.5
1.0,1.5294508934020996,1.0,2,0,337,-0.3992166352707425,0.5
1.0,1.5414509773254395,1.0,2,0,338,-0.19467718155888247,0.5
1.0,1.5574510097503662,1.0,2,0,339,-0.2206014039473341,0.5
1.0,1.8934470415115356,1.0,2,0,340,0.4164848300631622,0.5
1.0,1.5234508514404297,1.0,2,0,341,1.081480611115959,0.5
1.0,1.7424489259719849,1.0,2,0,342,-0.26297368614304695,0.5
1.0,1.5614509582519531,1.0,2,0,343,-0.3184997556631422,0.5
1.0,1.8024481534957886,0.0,2,0,344,0.29650687860661534,0.5
1.0,1.7744485139846802,1.0,2,0,345,-0.35576741277907326,0.5
1.0,1.7304490804672241,1.0,2,0,346,-0.06720803297279977,0.5
1.0,1.7054494619369507,1.0,2,0,347,-0.2781743036455995,0.5
1.0,1.9014469385147095,1.0,2,0,348,0.5782506473911663,0.5
1.0,1.537450909614563,1.0,2,0,349,-0.09660187729573354,0.5
1.0,1.8614474534988403,0.0,2,0,350,0.203312119493272,0.5
0.0,1.6874496936798096,0.0,2,0,351,-0.5211146088906985,0.5
1.0,1.5324509143829346,1.0,2,0,352,-0.2549550420825994,0.5
1.0,1.7954483032226562,1.0,2,0,353,0.1731287142997207,0.5
1.0,1.948446273803711,1.0,2,0,354,0.5215242691391985,0.5
1.0,1.9564461708068848,1.0,2,0,355,0.7167640625095092,0.5
1.0,1.9994456768035889,0.0,2,0,356,1.8719387041104916,0.5
1.0,1.9624462127685547,0.0,2,0,357,0.9059583468105763,0.5
0.0,2.1184442043304443,0.0,2,0,358,1.8515341147436906,0.5
0.0,1.7944482564926147,0.0,2,0,359,0.07663653500138125,0.5
0.0,1.4874508380889893,0.0,2,0,360,-0.8435823933339998,0.5
0.0,1.6734498739242554,0.0,2,0,361,0.40156932718649063,0.5
0.0,1.9394464492797852,0.0,2,0,362,0.8575113549027654,0.5
0.0,1.6734498739242554,0.0,2,0,363,0.23625473871862643,0.5
0.0,1.694449543952942,0.0,2,0,364,0.09207965136626937,0.5
1.0,1.4864507913589478,0.0,2,0,365,-0.987794034404169,0.5
1.0,1.5634509325027466,1.0,2,0,366,-1.5795342465983446,0.5
1.0,2.0554449558258057,0.0,2,0,367,1.9382966537713864,0.5
0.0,1.9544463157653809,0.0,2,0,368,0.5113328584974067,0.5
1.0,1.7394490242004395,1.0,2,0,369,0.3232727474102763,0.5
1.0,1.8594474792480469,1.0,2,0,370,1.930149084272529,0.5
1.0,1.6284503936767578,1.0,2,0,371,-0.7699446450560741,0.5
1.0,1.537450909614563,1.0,2,0,372,-1.3051508136155687,0.5
1.0,1.948446273803711,0.0,2,0,373,2.177472324170978,0.5
1.0,1.598450779914856,1.0,2,0,374,0.3020049962977376,0.5
0.0,1.5224509239196777,1.0,2,0,375,-0.9170209769674048,0.5
0.0,1.807448148727417,0.0,2,0,376,-0.22676287446417764,0.5
0.0,1.540450930595398,0.0,2,0,377,-1.6728432308830132,0.5
1.0,1.6374503374099731,1.0,2,0,378,1.0617445812686503,0.5
1.0,1.5144509077072144,0.0,2,0,379,0.10420352431368714,0.5
1.0,1.7744485139846802,1.0,2,0,380,1.4189965317717304,0.5
1.0,1.5854510068893433,0.0,2,0,381,-1.0603495974740056,0.5
1.0,1.5514509677886963,1.0,2,0,382,-0.23768850476928177,0.5
1.0,1.804448127746582,1.0,2,0,383,0.4872558196615365,0.5
0.0,1.850447654724121,0.0,2,0,384,0.18880520822342495,0.5
1.0,1.6334503889083862,0.0,2,0,385,-0.037379593628498374,0.5
0.0,1.7964482307434082,1.0,2,0,386,0.628454407370453,0.5
0.0,1.5534509420394897,0.0,2,0,387,0.48498226745687456,0.5
0.0,1.708449363708496,0.0,2,0,388,0.3183327276119534,0.5
0.0,1.6614500284194946,0.0,2,0,389,-0.9811005940804397,0.5
0.0,1.4934508800506592,0.0,2,0,390,-1.0439848307927513,0.5
0.0,1.7244491577148438,1.0,2,0,391,0.11558385880517232,0.5
1.0,1.623450517654419,1.0,2,0,392,-1.2671377204073262,0.5
1.0,1.6794497966766357,1.0,2,0,393,0.6098602976657582,0.5
1.0,1.4574507474899292,1.0,2,0,394,-0.42509050276772964,0.5
0.0,1.4834507703781128,0.0,2,0,395,-2.05787828658061,0.5
0.0,2.0094456672668457,0.0,2,0,396,0.9827602583701078,0.5
0.0,1.7064493894577026,0.0,2,0,397,-0.5762639613704827,0.5
1.0,1.3604506254196167,0.0,2,0,398,-2.6786016459478046,0.5
0.0,1.567451000213623,0.0,2,0,399,-0.03935780105364254,0.5
1.0,2.04644513130188,1.0,2,0,400,1.8484435026548591,0.5
1.0,1.9294465780258179,1.0,2,0,401,1.6224546642485136,0.5
1.0,1.8604474067687988,0.0,2,0,402,0.8893490398052857,0.5
0.0,1.3634506464004517,0.0,2,0,403,-2.2074734726750336,0.5
0.0,1.7914483547210693,1.0,2,0,404,0.6324585253644163,0.5
0.0,1.756448745727539,0.0,2,0,405,0.38195079530820825,0.5
0.0,1.6594500541687012,0.0,2,0,406,1.316441891288437,0.5
0.0,1.833447813987732,0.0,2,0,407,0.30721950406109,0.5
0.0,1.5834510326385498,0.0,2,0,408,-0.9089008606381725,0.5
0.0,1.5884509086608887,1.0,2,0,409,-1.1258331517050588,0.5
0.0,1.4604507684707642,0.0,2,0,410,-1.5983252422255514,0.5
0.0,1.4264507293701172,0.0,2,0,411,-1.2565508564125485,0.5
0.0,1.759448766708374,0.0,2,0,412,-0.27726559066642986,0.5
0.0,1.6404502391815186,0.0,2,0,413,-0.7792180045824424,0.5
0.0,1.66444993019104,0.0,2,0,414,0.42087956179616487,0.5
1.0,1.8824472427368164,1.0,2,0,415,0.4924979961354933,0.5
1.0,1.7704485654830933,1.0,2,0,416,0.7280629635624867,0.5
0.0,1.7744485139846802,0.0,2,0,417,-0.004361842171996839,0.5
1.0,2.0164453983306885,1.0,2,0,418,2.062586733232434,0.5
1.0,1.8224478960037231,1.0,2,0,419,0.520774573741242,0.5
1.0,1.4944508075714111,0.0,2,0,420,-1.9982692089176337,0.5
0.0,1.593450903892517,0.0,2,0,421,-0.2861631736050783,0.5
0.0,1.663450002670288,0.0,2,0,422,-0.0576833624468952,0.5
1.0,1.825447916984558,0.0,2,0,423,0.42903639010392597,0.5
1.0,1.7834484577178955,1.0,2,0,424,0.42651306870481526,0.5
1.0,1.620450496673584,1.0,2,0,425,-0.3068231545714952,0.5
1.0,1.6784497499465942,1.0,2,0,426,-0.5215014504098063,0.5
1.0,1.4584507942199707,1.0,2,0,427,-1.1306655390326579,0.5
1.0,1.8924469947814941,1.0,2,0,428,0.17425466231641984,0.5
1.0,1.4884507656097412,1.0,2,0,429,-0.40018073674655913,0.5
1.0,1.5964508056640625,1.0,2,0,430,-1.0673997648103382,0.5
1.0,1.8594474792480469,1.0,2,0,431,3.597042306651484,0.5
0.0,1.4584507942199707,0.0,2,0,432,-1.9938787452016147,0.5
1.0,1.7534488439559937,1.0,2,0,433,0.6807618627675311,0.5
1.0,1.6264504194259644,1.0,2,0,434,0.07193034976743513,0.5
0.0,1.737449049949646,1.0,2,0,435,-0.6045844987583402,0.5
1.0,1.4514507055282593,0.0,2,0,436,-1.3423433948305403,0.5
0.0,1.5524508953094482,0.0,2,0,437,-0.803441671582432,0.5
0.0,1.733449101448059,0.0,2,0,438,0.39981023965576135,0.5
0.0,1.7614487409591675,0.0,2,0,439,1.3433152756720255,0.5
1.0,1.8274478912353516,1.0,2,0,440,1.280722672191663,0.5
1.0,1.5814509391784668,1.0,2,0,441,-1.4302687419635218,0.5
1.0,1.6664499044418335,1.0,2,0,442,-0.055673580462599154,0.5
1.0,1.7394490242004395,1.0,2,0,443,-0.49223180594684596,0.5
1.0,1.6794497966766357,0.0,2,0,444,-0.6093476596931764,0.5
0.0,1.500450849533081,0.0,2,0,445,0.19710802587692539,0.5
1.0,1.7404489517211914,1.0,2,0,446,0.12725321876348916,0.5
1.0,1.9144468307495117,0.0,2,0,447,0.7902778543804775,0.5
1.0,1.616450548171997,0.0,2,0,448,-0.4040315494498103,0.5
0.0,1.9744460582733154,0.0,2,0,449,1.1131514091665071,0.5
1.0,1.990445852279663,1.0,2,0,450,1.5003745783230948,0.5
1.0,1.6274504661560059,0.0,2,0,451,-0.1662079858338428,0.5
0.0,1.4794508218765259,0.0,2,0,452,-0.6093445577318929,0.5
1.0,1.5384509563446045,0.0,2,0,453,-0.25420439404664336,0.5
0.0,1.6954495906829834,0.0,2,0,454,0.8129137882157028,0.5
1.0,1.509450912475586,1.0,2,0,455,-1.0906189562453632,0.5
1.0,1.4234507083892822,1.0,2,0,456,-1.7942353891371547,0.5
1.0,1.6344503164291382,1.0,2,0,457,-1.4518792411121997,0.5
1.0,1.7664486169815063,0.0,2,0,458,1.237926522529795,0.5
1.0,1.528450846672058,1.0,2,0,459,-1.1281390450395437,0.5
0.0,1.8604474067687988,0.0,2,0,460,0.6720874575695054,0.5
1.0,1.5384509563446045,1.0,2,0,461,-1.2000015608441346,0.5
1.0,1.940446376800537,1.0,2,0,462,1.7541837515994456,0.5
0.0,1.7354490756988525,0.0,2,0,463,0.0013761727796581407,0.5
0.0,1.781448483467102,0.0,2,0,464,-0.1804241055184127,0.5
1.0,1.66444993019104,1.0,2,0,465,-0.493940492925329,0.5
1.0,1.6584500074386597,1.0,2,0,466,0.018638100052866202,0.5
1.0,1.4524507522583008,1.0,2,0,467,-1.3135162348221938,0.5
0.0,1.507450819015503,0.0,2,0,468,-1.9725021939628367,0.5
0.0,1.6274504661560059,0.0,2,0,469,-0.44672081748265074,0.5
0.0,1.5694509744644165,1.0,2,0,470,-0.6239508132766509,0.5
0.0,1.5164508819580078,0.0,2,0,471,-0.2751636777380727,0.5
0.0,1.6564500331878662,0.0,2,0,472,1.1278438154497037,0.5
1.0,1.9154467582702637,1.0,2,0,473,1.9170486953844768,0.5
1.0,1.6214505434036255,1.0,2,0,474,0.5266856640624238,0.5
1.0,1.6954495906829834,1.0,2,0,475,0.852897419193116,0.5
0.0,1.944446325302124,1.0,2,0,476,1.3104079346886133,0.5
1.0,1.5114508867263794,1.0,2,0,477,-0.17906118703942236,0.5
1.0,1.476450800895691,0.0,2,0,478,-0.9849896925785436,0.5
0.0,1.445450782775879,0.0,2,0,479,-1.4712552740874432,0.5
1.0,1.6294504404067993,0.0,2,0,480,-0.11447308949695933,0.5
0.0,1.7794485092163086,0.0,2,0,481,-0.5045095608517325,0.5
0.0,1.7474489212036133,0.0,2,0,482,0.3655113052765595,0.5
1.0,1.71644926071167,1.0,2,0,483,-0.04423304274021544,0.5
1.0,1.8434476852416992,1.0,2,0,484,0.2909064772793128,0.5
1.0,1.6914496421813965,1.0,2,0,485,-0.10913485258931525,0.5
1.0,1.690449595451355,1.0,2,0,486,0.28763275202114724,0.5
1.0,1.6764497756958008,1.0,2,0,487,-0.36910450692297175,0.5
1.0,1.7694486379623413,1.0,2,0,488,0.7602543193638432,0.5
1.0,1.7304490804672241,1.0,2,0,489,0.7333426715813421,0.5
0.0,1.5554509162902832,0.0,2,0,490,-0.1267082548548473,0.5
1.0,1.830447793006897,1.0,2,0,491,2.767791861521301,0.5
1.0,1.7014495134353638,0.0,2,0,492,0.17897015654905774,0.5
0.0,1.593450903892517,0.0,2,0,493,-1.1699460218900317,0.5
0.0,1.881447196006775,0.0,2,0,494,0.9040619142881329,0.5
0.0,1.5634509325027466,0.0,2,0,495,0.5266577758486929,0.5
1.0,1.8474476337432861,1.0,2,0,496,0.4560328432368054,0.5
1.0,2.0534448623657227,1.0,2,0,497,1.143510705645834,0.5
1.0,1.510450839996338,1.0,2,0,498,-0.28829196332543044,0.5
1.0,1.5484509468078613,1.0,2,0,499,-0.5347143278459268,0.5
1.0,1.6794497966766357,1.0,2,0,500,-0.5461431149333978,0.5
0.0,1.5701969861984253,0.0,3,0,1,-0.9068417947621866,0.5
1.0,1.6001965999603271,0.0,3,0,2,-0.11885206333042844,0.5
0.0,1.485196828842163,0.0,3,0,3,-1.655334327763538,0.5
1.0,1.4631967544555664,1.0,3,0,4,-2.3326210425412097,0.5
1.0,1.6361961364746094,1.0,3,0,5,0.8789451565744417,0.5
1.0,1.7301949262619019,1.0,3,0,6,0.1962793375623867,0.5
0.0,1.464196801185608,0.0,3,0,7,-0.09232549083460329,0.5
1.0,2.122189998626709,1.0,3,0,8,1.2646557093785635,0.5
0.0,1.5411969423294067,1.0,3,0,9,-0.6142670597340643,0.5
1.0,1.8071938753128052,1.0,3,0,10,1.074195000993227,0.5
1.0,1.793194055557251,0.0,3,0,11,0.18075676402906615,0.5
0.0,1.458196759223938,0.0,3,0,12,-1.9463582868465132,0.5
0.0,1.6581958532333374,0.0,3,0,13,0.3168654273309618,0.5
1.0,1.8381935358047485,1.0,3,0,14,-0.1565887545064628,0.5
1.0,1.6891953945159912,0.0,3,0,15,0.9614430418735179,0.5
0.0,1.7371947765350342,1.0,3,0,16,-0.0005643525598536219,0.5
0.0,1.9751918315887451,0.0,3,0,17,1.380445526504095,0.5
0.0,1.6021965742111206,0.0,3,0,18,-1.0171371346676055,0.5
0.0,1.5691969394683838,0.0,3,0,19,-0.38291962043348765,0.5
1.0,1.6861954927444458,1.0,3,0,20,-1.6119834468825638,0.5
1.0,1.6131963729858398,0.0,3,0,21,-1.8714947523743617,0.5
1.0,2.0531907081604004,1.0,3,0,22,0.9512961012362733,0.5
1.0,1.6861954927444458,1.0,3,0,23,0.440122255937004,0.5
0.0,1.7241950035095215,0.0,3,0,24,-0.6124193895765058,0.5
1.0,1.6801955699920654,1.0,3,0,25,0.2041640409176688,0.5
1.0,1.7501946687698364,1.0,3,0,26,0.035736461674512526,0.5
0.0,1.9711918830871582,0.0,3,0,27,0.6779165032169833,0.5
1.0,1.5701969861984253,1.0,3,0,28,-0.6676554591640451,0.5
1.0,1.6281962394714355,1.0,3,0,29,0.00790975091635353,0.5
1.0,1.767194390296936,0.0,3,0,30,-1.1441696400989563,0.5
1.0,1.6251962184906006,1.0,3,0,31,-1.078134830153003,0.5
0.0,1.6911953687667847,0.0,3,0,32,-0.19425290933547873,0.5
1.0,1.7391947507858276,1.0,3,0,33,0.7129909846797752,0.5
1.0,1.6701956987380981,1.0,3,0,34,0.6271956257961335,0.5
1.0,1.7401947975158691,1.0,3,0,35,-0.8057490375356364,0.5
1.0,1.675195574760437,1.0,3,0,36,0.18012214405852556,0.5
1.0,1.4651967287063599,1.0,3,0,37,-1.2203581550867408,0.5
1.0,1.6421960592269897,1.0,3,0,38,0.042013605192557694,0.5
1.0,1.9221924543380737,0.0,3,0,39,0.7873797648744921,0.5
0.0,1.7201950550079346,0.0,3,0,40,-0.3316587101211298,0.5
0.0,2.118189811706543,0.0,3,0,41,1.578432259194896,0.5
0.0,2.115190029144287,0.0,3,0,42,1.1951057998453558,0.5
0.0,1.7721943855285645,1.0,3,0,43,-0.6451159263416708,0.5
0.0,1.394196629524231,0.0,3,0,44,-1.1494708654404715,0.5
1.0,1.7031952142715454,0.0,3,0,45,0.5424324391312407,0.5
1.0,1.796194076538086,1.0,3,0,46,-0.06525491717441366,0.5
0.0,2.0401909351348877,0.0,3,0,47,1.1577650145659693,0.5
1.0,1.884192943572998,1.0,3,0,48,1.7413851750717533,0.5
1.0,1.8001940250396729,1.0,3,0,49,1.2801106921470533,0.5
1.0,1.8281936645507812,0.0,3,0,50,0.8874915476663712,0.5
1.0,1.9511921405792236,0.0,3,0,51,0.3096744832593545,0.5
1.0,1.7181950807571411,1.0,3,0,52,-0.2730454730932236,0.5
1.0,1.8121938705444336,1.0,3,0,53,-0.6498085469587669,0.5
1.0,1.939192295074463,1.0,3,0,54,0.4254018287424216,0.5
1.0,1.9861916303634644,0.0,3,0,55,1.4222335055266024,0.5
1.0,1.7761943340301514,1.0,3,0,56,0.2987527049647942,0.5
1.0,1.8341935873031616,1.0,3,0,57,-0.5252208243798158,0.5
1.0,1.9161925315856934,0.0,3,0,58,1.4320481393686753,0.5
0.0,1.9121925830841064,0.0,3,0,59,0.616296111955974,0.5
0.0,1.8011939525604248,1.0,3,0,60,1.0570020780455354,0.5
0.0,1.5041968822479248,1.0,3,0,61,-1.4383150595777316,0.5
0.0,1.7841942310333252,0.0,3,0,62,1.5823961080651874,0.5
1.0,2.126189708709717,1.0,3,0,63,0.6807427933058099,0.5
1.0,1.8641932010650635,1.0,3,0,64,-0.23597515536899322,0.5
1.0,1.843193531036377,0.0,3,0,65,0.6173617163254603,0.5
0.0,1.8491933345794678,1.0,3,0,66,0.8073596554942782,0.5
0.0,2.0481908321380615,0.0,3,0,67,0.6811831014762192,0.5
0.0,1.7861942052841187,0.0,3,0,68,1.5908200940410875,0.5
1.0,1.6161963939666748,1.0,3,0,69,-0.250369304414937,0.5
1.0,1.6361961364746094,1.0,3,0,70,0.03136349428751208,0.5
1.0,1.649195909500122,1.0,3,0,71,-1.2606155425495535,0.5
1.0,1.6511958837509155,1.0,3,0,72,0.3818915311829286,0.5
1.0,1.766194462776184,0.0,3,0,73,-0.06407995677488372,0.5
0.0,1.492196798324585,0.0,3,0,74,-1.2166391588352747,0.5
0.0,2.1051900386810303,1.0,3,0,75,1.3251781110956824,0.5
1.0,1.8321936130523682,1.0,3,0,76,0.4991015756655378,0.5
0.0,1.6331961154937744,1.0,3,0,77,-0.1615259563594378,0.5
0.0,1.3691966533660889,0.0,3,0,78,-2.1023695660336488,0.5
1.0,1.49519681930542,1.0,3,0,79,-0.8855404538106123,0.5
1.0,1.7471946477890015,1.0,3,0,80,0.8852602580573694,0.5
0.0,1.5961966514587402,1.0,3,0,81,-1.1167853934396115,0.5
1.0,1.656195878982544,1.0,3,0,82,-1.2241658493013219,0.5
0.0,1.7201950550079346,0.0,3,0,83,-1.0943120430688127,0.5
1.0,1.6921954154968262,1.0,3,0,84,0.3852750313319711,0.5
0.0,1.5771968364715576,1.0,3,0,85,-0.20775756914004964,0.5
0.0,1.7161951065063477,0.0,3,0,86,-0.8629295250805608,0.5
0.0,1.7781943082809448,0.0,3,0,87,-0.5453210589472863,0.5
1.0,1.9871916770935059,1.0,3,0,88,0.743008342669301,0.5
1.0,1.5201969146728516,1.0,3,0,89,-1.8184710417444034,0.5
1.0,1.6621958017349243,1.0,3,0,90,-0.9443118744885034,0.5
1.0,1.9651918411254883,1.0,3,0,91,1.0976387019715883,0.5
1.0,1.67119562625885,1.0,3,0,92,0.3573037962462165,0.5
1.0,1.4901968240737915,0.0,3,0,93,-1.3541674469731868,0.5
0.0,1.7021952867507935,0.0,3,0,94,-0.21093579714777858,0.5
0.0,1.9191925525665283,0.0,3,0,95,0.8155712628982364,0.5
1.0,1.6941953897476196,0.0,3,0,96,-0.08251070533684873,0.5
0.0,2.0071914196014404,0.0,3,0,97,0.4332945218712063,0.5
1.0,1.559196949005127,1.0,3,0,98,-1.150017826099252,0.5
0.0,1.8171937465667725,1.0,3,0,99,0.04339517346983042,0.5
0.0,1.6451959609985352,0.0,3,0,100,-1.6949756756227043,0.5
0.0,2.0921902656555176,0.0,3,0,101,0.5239784189479907,0.5
1.0,1.6811954975128174,0.0,3,0,102,-0.14881502161727062,0.5
0.0,1.8761930465698242,0.0,3,0,103,0.9243347313486723,0.5
1.0,1.6731956005096436,1.0,3,0,104,0.10911397727860137,0.5
1.0,1.6241962909698486,1.0,3,0,105,-0.465154679729676,0.5
1.0,1.696195363998413,1.0,3,0,106,0.6059065134859213,0.5
1.0,1.5201969146728516,1.0,3,0,107,-1.5486418724751712,0.5
1.0,1.5401968955993652,1.0,3,0,108,-1.0499760161930842,0.5
1.0,1.6871954202651978,1.0,3,0,109,0.7802763937341399,0.5
1.0,1.741194725036621,1.0,3,0,110,-0.15000460336294336,0.5
1.0,1.6251962184906006,0.0,3,0,111,0.2253847770579857,0.5
0.0,1.8641932010650635,0.0,3,0,112,-0.36978662672973217,0.5
0.0,1.7071951627731323,0.0,3,0,113,0.016602377087355437,0.5
0.0,1.6251962184906006,0.0,3,0,114,0.6740177282659716,0.5
0.0,1.7211949825286865,0.0,3,0,115,0.8978553969765429,0.5
0.0,1.7281949520111084,0.0,3,0,116,0.2907137766765006,0.5
1.0,1.6471959352493286,1.0,3,0,117,-0.40186343413531017,0.5
1.0,1.888192892074585,1.0,3,0,118,0.7989501958911189,0.5
1.0,1.7161951065063477,0.0,3,0,119,-0.8240696147755016,0.5
0.0,1.8101938962936401,1.0,3,0,120,-0.29823695338617184,0.5
1.0,1.4981968402862549,1.0,3,0,121,-0.5714448031834986,0.5
0.0,1.7141951322555542,0.0,3,0,122,1.35216278089992,0.5
1.0,1.8261936902999878,1.0,3,0,123,-0.06000309819784648,0.5
1.0,1.6371960639953613,1.0,3,0,124,-0.11452121610359305,0.5
1.0,1.8071938753128052,1.0,3,0,125,-0.16727267236883117,0.5
1.0,1.889192819595337,1.0,3,0,126,1.2458459477648034,0.5
0.0,2.212188720703125,0.0,3,0,127,1.6711998347457944,0.5
1.0,1.492196798324585,0.0,3,0,128,-1.0835848511124153,0.5
1.0,1.6701956987380981,0.0,3,0,129,-0.19529245126051656,0.5
0.0,1.72319495677948,1.0,3,0,130,1.4427480814076126,0.5
0.0,1.6201963424682617,1.0,3,0,131,1.1886696486586448,0.5
0.0,1.5811967849731445,0.0,3,0,132,0.4985712788940285,0.5
0.0,1.7761943340301514,0.0,3,0,133,-0.12619187001966392,0.5
0.0,1.88519287109375,1.0,3,0,134,0.27236811247735543,0.5
1.0,1.6691956520080566,1.0,3,0,135,-0.18166490385058984,0.5
0.0,1.491196870803833,0.0,3,0,136,-1.6556640542514034,0.5
1.0,1.9741917848587036,0.0,3,0,137,0.7209442741336517,0.5
1.0,2.1051900386810303,1.0,3,0,138,0.9797042814091195,0.5
1.0,1.931192398071289,1.0,3,0,139,1.0067465037834016,0.5
1.0,1.9931914806365967,1.0,3,0,140,0.7446101930542441,0.5
1.0,2.0541906356811523,1.0,3,0,141,0.8838004874633986,0.5
1.0,1.8081939220428467,1.0,3,0,142,0.06767213364744898,0.5
1.0,1.9711918830871582,1.0,3,0,143,0.8183947872758074,0.5
1.0,1.6981953382492065,0.0,3,0,144,-0.5254912834713393,0.5
0.0,2.0541906356811523,0.0,3,0,145,1.3730464365753958,0.5
1.0,1.626196265220642,1.0,3,0,146,-0.24661372649041816,0.5
1.0,1.9701918363571167,1.0,3,0,147,0.3696947421027111,0.5
1.0,1.8071938753128052,1.0,3,0,148,0.7945925672486194,0.5
0.0,1.5981966257095337,0.0,3,0,149,-0.6997044381604792,0.5
1.0,1.6821955442428589,0.0,3,0,150,-0.15576889096992616,0.5
1.0,2.310187339782715,1.0,3,0,151,1.8547868523178053,0.5
1.0,1.788194179534912,1.0,3,0,152,0.5997366816263888,0.5
1.0,2.0091912746429443,1.0,3,0,153,0.675595260836448,0.5
1.0,1.9141925573349,1.0,3,0,154,0.21174502285251615,0.5
1.0,1.6441960334777832,0.0,3,0,155,-0.35231550982581955,0.5
0.0,1.6611957550048828,0.0,3,0,156,-0.4527808157120257,0.5
1.0,2.110189914703369,1.0,3,0,157,1.7689157962209276,0.5
1.0,1.9491920471191406,1.0,3,0,158,-0.13162341158801913,0.5
1.0,1.8331935405731201,1.0,3,0,159,0.6596823984899022,0.5
0.0,1.9251923561096191,1.0,3,0,160,0.5328754724325248,0.5
1.0,1.9741917848587036,1.0,3,0,161,1.4455205357039742,0.5
1.0,1.649195909500122,1.0,3,0,162,1.8439721608899518,0.5
1.0,1.815193772315979,1.0,3,0,163,0.8661241297546222,0.5
0.0,1.7991939783096313,0.0,3,0,164,0.11416902162003666,0.5
1.0,2.0041913986206055,1.0,3,0,165,1.3823422280848632,0.5
1.0,1.6391960382461548,1.0,3,0,166,-0.5839059018141581,0.5
1.0,1.9181925058364868,1.0,3,0,167,2.286986053166701,0.5
0.0,1.649195909500122,0.0,3,0,168,-0.24167050805195373,0.5
1.0,1.6901954412460327,0.0,3,0,169,-0.17153643353247855,0.5
0.0,1.9611918926239014,0.0,3,0,170,0.38179544759732187,0.5
0.0,1.6931953430175781,0.0,3,0,171,0.5441484179829429,0.5
1.0,1.7421947717666626,1.0,3,0,172,0.10220318321193492,0.5
0.0,1.6661957502365112,0.0,3,0,173,0.5597171706236435,0.5
1.0,1.6171963214874268,1.0,3,0,174,-1.6663996403197552,0.5
1.0,2.017191171646118,1.0,3,0,175,1.7686370867706176,0.5
1.0,1.9261924028396606,1.0,3,0,176,0.9747745940975782,0.5
0.0,1.843193531036377,0.0,3,0,177,0.49339309797754394,0.5
0.0,2.1031901836395264,1.0,3,0,178,1.281322218275338,0.5
1.0,1.582196831703186,1.0,3,0,179,-0.5874560166275973,0.5
1.0,1.958191990852356,1.0,3,0,180,0.07456608371762795,0.5
0.0,1.6391960382461548,0.0,3,0,181,0.6829712329950381,0.5
1.0,1.9931914806365967,0.0,3,0,182,2.075785984300612,0.5
0.0,2.1461896896362305,1.0,3,0,183,0.8089884136247842,0.5
1.0,1.8161938190460205,1.0,3,0,184,1.1491879639924993,0.5
0.0,1.5011968612670898,0.0,3,0,185,-0.6344870790680737,0.5
1.0,2.068190574645996,1.0,3,0,186,1.2798394571838538,0.5
1.0,1.6671956777572632,0.0,3,0,187,-0.3121942914879763,0.5
1.0,1.5071969032287598,1.0,3,0,188,-1.1518750792189594,0.5
1.0,1.5921967029571533,1.0,3,0,189,-0.20329396885398093,0.5
0.0,1.8321936130523682,0.0,3,0,190,0.013096975509043018,0.5
1.0,1.793194055557251,1.0,3,0,191,-0.18931380908881326,0.5
1.0,1.719195008277893,1.0,3,0,192,-1.1524684553369697,0.5
1.0,1.6211962699890137,1.0,3,0,193,-0.8272672704971735,0.5
1.0,1.6721956729888916,1.0,3,0,194,0.2397875861616156,0.5
0.0,1.9681918621063232,0.0,3,0,195,0.10419387766063545,0.5
1.0,1.6451959609985352,1.0,3,0,196,0.9856143121665075,0.5
1.0,1.9131925106048584,1.0,3,0,197,0.3928555941872489,0.5
1.0,1.5751968622207642,1.0,3,0,198,-0.7417953666483339,0.5
1.0,1.7211949825286865,1.0,3,0,199,1.5159942769821613,0.5
1.0,1.9001927375793457,1.0,3,0,200,0.1867629391727625,0.5
1.0,1.6031965017318726,1.0,3,0,201,0.1462540993742404,0.5
1.0,1.767194390296936,1.0,3,0,202,0.4993188988136709,0.5
1.0,1.72319495677948,1.0,3,0,203,-0.5158765107904241,0.5
1.0,1.630196213722229,0.0,3,0,204,0.10702608004260636,0.5
0.0,1.6551958322525024,0.0,3,0,205,0.37421090382021505,0.5
0.0,1.9371922016143799,1.0,3,0,206,0.8241916556000165,0.5
0.0,1.6411960124969482,0.0,3,0,207,-0.8369261781062778,0.5
1.0,2.033190965652466,1.0,3,0,208,0.07941932150959252,0.5
1.0,1.488196849822998,1.0,3,0,209,0.04400139007095727,0.5
1.0,1.6911953687667847,1.0,3,0,210,0.16664012433624417,0.5
1.0,2.0421910285949707,1.0,3,0,211,0.6488346767309571,0.5
1.0,1.8451933860778809,0.0,3,0,212,0.12238396050590178,0.5
0.0,1.976191759109497,0.0,3,0,213,0.34276848378752056,0.5
0.0,1.675195574760437,0.0,3,0,214,0.05381927808897127,0.5
0.0,1.8801929950714111,0.0,3,0,215,-0.16676605897580665,0.5
1.0,1.9611918926239014,1.0,3,0,216,1.0996019923835136,0.5
0.0,2.0511908531188965,0.0,3,0,217,0.330155661007841,0.5
0.0,1.6221963167190552,1.0,3,0,218,-0.5179035684510807,0.5
1.0,1.5651969909667969,1.0,3,0,219,-1.7450432900099173,0.5
0.0,1.811193823814392,0.0,3,0,220,-0.8206330601489434,0.5
