response,rt,feedback,subj_idx,split_by,trial,neural_reg,q_init
1.0,2.3519322872161865,1.0,0,0,1,-1.7837533518397004,0.5
1.0,4.635919570922852,1.0,0,0,2,1.793583932084486,0.5
1.0,4.823905944824219,1.0,0,0,3,0.6013834888306235,0.5
0.0,3.011929750442505,0.0,0,0,4,0.22083892964469948,0.5
1.0,2.83992600440979,1.0,0,0,5,-0.7410297260985784,0.5
0.0,2.5869293212890625,0.0,0,0,6,0.04139848060977265,0.5
1.0,2.9289259910583496,1.0,0,0,7,-1.6001041246541943,0.5
1.0,3.591956853866577,1.0,0,0,8,0.13303227741507742,0.5
1.0,2.9269256591796875,0.0,0,0,9,0.07458720283226283,0.5
1.0,2.700927734375,1.0,0,0,10,-1.8033828941204921,0.5
1.0,3.1489362716674805,0.0,0,0,11,1.141082804938012,0.5
1.0,3.2209396362304688,1.0,0,0,12,-1.9058489145674864,0.5
1.0,3.4819517135620117,0.0,0,0,13,-0.02444625206795867,0.5
1.0,3.9279708862304688,1.0,0,0,14,-0.11067201817644336,0.5
0.0,2.5729293823242188,0.0,0,0,15,-1.8146045294911188,0.5
1.0,4.421935081481934,0.0,0,0,16,-1.104185144169564,0.5
0.0,4.191951751708984,0.0,0,0,17,2.0512324024980337,0.5
1.0,4.853903770446777,0.0,0,0,18,-0.030780372640973237,0.5
0.0,2.2709333896636963,0.0,0,0,19,0.7279417889762275,0.5
0.0,3.798966407775879,1.0,0,0,20,-0.3662042680840809,0.5
0.0,2.5969290733337402,0.0,0,0,21,-0.15457820444689319,0.5
1.0,4.7119140625,0.0,0,0,22,2.8849244690495266,0.5
1.0,3.1739373207092285,1.0,0,0,23,1.205606067745202,0.5
1.0,3.4079482555389404,1.0,0,0,24,-1.046039750798162,0.5
1.0,2.4049315452575684,1.0,0,0,25,-0.37880735457128417,0.5
1.0,4.576923847198486,1.0,0,0,26,1.0639376854063014,0.5
1.0,3.524953842163086,1.0,0,0,27,-0.5101453608713329,0.5
0.0,3.6619601249694824,0.0,0,0,28,-0.2381272296314052,0.5
1.0,3.3529458045959473,1.0,0,0,29,1.1368436235912833,0.5
1.0,2.84592604637146,0.0,0,0,30,0.6351911023540238,0.5
0.0,2.6199288368225098,0.0,0,0,31,-0.38999746681074454,0.5
1.0,2.0959346294403076,1.0,0,0,32,-3.0468206567789102,0.5
1.0,3.845968723297119,1.0,0,0,33,-0.5910075536020902,0.5
1.0,3.1769375801086426,1.0,0,0,34,-0.04378178339892607,0.5
1.0,2.9089250564575195,1.0,0,0,35,-0.6756049536065256,0.5
1.0,2.289933204650879,1.0,0,0,36,0.025321631440948292,0.5
1.0,3.9499692916870117,1.0,0,0,37,0.44695849098450846,0.5
1.0,2.791926622390747,1.0,0,0,38,-0.49840135520721174,0.5
1.0,2.6749281883239746,1.0,0,0,39,0.22298774410394429,0.5
1.0,3.2199394702911377,0.0,0,0,40,-0.3032878394131751,0.5
0.0,2.4879305362701416,0.0,0,0,41,-1.6022590665143552,0.5
0.0,2.517930269241333,0.0,0,0,42,-0.01616347803494715,0.5
0.0,3.1729373931884766,0.0,0,0,43,-0.15629798180191634,0.5
1.0,3.4479501247406006,1.0,0,0,44,0.6422917928181423,0.5
1.0,2.7149276733398438,0.0,0,0,45,-0.472614332658723,0.5
0.0,3.536954402923584,0.0,0,0,46,0.7981436828535903,0.5
0.0,2.481930732727051,0.0,0,0,47,-0.1330317546736581,0.5
1.0,4.979894638061523,1.0,0,0,48,0.9410243668257486,0.5
1.0,2.8629257678985596,0.0,0,0,49,-1.3258434630878109,0.5
0.0,2.8709256649017334,0.0,0,0,50,-0.7700873757329508,0.5
1.0,4.451932907104492,1.0,0,0,51,-0.6035823413168364,0.5
1.0,2.506930351257324,1.0,0,0,52,-0.6154434572388865,0.5
0.0,1.999934434890747,0.0,0,0,53,-3.4028542758943763,0.5
1.0,3.020930290222168,1.0,0,0,54,0.6737450945965536,0.5
1.0,3.8839704990386963,1.0,0,0,55,0.8572747011859613,0.5
1.0,3.576956272125244,1.0,0,0,56,0.33189445638666226,0.5
0.0,2.9829282760620117,0.0,0,0,57,-0.5037487511765617,0.5
1.0,3.1249351501464844,1.0,0,0,58,0.5316539518051988,0.5
1.0,3.811967134475708,0.0,0,0,59,-1.3257751689883466,0.5
1.0,4.260946750640869,1.0,0,0,60,0.12029574617643984,0.5
1.0,2.847925901412964,1.0,0,0,61,-0.3937704560211074,0.5
1.0,2.7759268283843994,1.0,0,0,62,1.295045149207187,0.5
1.0,2.370932102203369,0.0,0,0,63,0.7558170061062404,0.5
0.0,3.56095552444458,0.0,0,0,64,-0.4208549948715507,0.5
0.0,2.2199339866638184,0.0,0,0,65,-0.5479096925714964,0.5
1.0,3.9139719009399414,1.0,0,0,66,-0.02435805491283119,0.5
1.0,3.4739513397216797,0.0,0,0,67,0.6061339545351918,0.5
1.0,3.7109622955322266,0.0,0,0,68,-0.016656495201219045,0.5
0.0,3.9739675521850586,1.0,0,0,69,0.10027401304131592,0.5
0.0,3.57395601272583,0.0,0,0,70,0.02481709671527389,0.5
0.0,2.9549269676208496,0.0,0,0,71,-0.37605069315995254,0.5
1.0,4.653918266296387,1.0,0,0,72,-0.22872051603684007,0.5
1.0,4.093958854675293,1.0,0,0,73,0.7707327323751836,0.5
0.0,4.8729023933410645,0.0,0,0,74,0.23261241448510836,0.5
1.0,3.774965286254883,1.0,0,0,75,-0.3610579047998306,0.5
1.0,3.366946220397949,1.0,0,0,76,-0.3588173742796273,0.5
1.0,2.999929189682007,1.0,0,0,77,1.4607224572251665,0.5
0.0,2.124934673309326,0.0,0,0,78,-0.7084965915489061,0.5
1.0,3.087933301925659,1.0,0,0,79,-2.217064803461417,0.5
1.0,3.324944496154785,1.0,0,0,80,0.9519742633953973,0.5
1.0,3.321944236755371,0.0,0,0,81,0.7465079243832092,0.5
1.0,4.541926383972168,1.0,0,0,82,1.6541720023027116,0.5
0.0,3.846968650817871,1.0,0,0,83,0.944086350773551,0.5
0.0,3.770965099334717,1.0,0,0,84,0.06419718652170131,0.5
0.0,4.055961608886719,0.0,0,0,85,-0.15866273162146333,0.5
0.0,2.331932544708252,1.0,0,0,86,-0.6465067305884113,0.5
1.0,4.328941822052002,1.0,0,0,87,0.6706919356471759,0.5
0.0,2.432931423187256,0.0,0,0,88,-0.5244361904185915,0.5
1.0,2.980928421020508,1.0,0,0,89,-0.6730799728256716,0.5
0.0,2.89792537689209,0.0,0,0,90,0.31310572173857515,0.5
1.0,3.312943935394287,1.0,0,0,91,0.4321887981238456,0.5
1.0,4.023963928222656,1.0,0,0,92,-0.7565778791344471,0.5
1.0,3.006929397583008,1.0,0,0,93,-0.24328260891874876,0.5
1.0,3.6339588165283203,1.0,0,0,94,0.4214564394043641,0.5
1.0,4.71691370010376,1.0,0,0,95,0.45282594911144114,0.5
1.0,4.8729023933410645,1.0,0,0,96,0.8729373215540558,0.5
0.0,4.065960884094238,0.0,0,0,97,0.49604076844395406,0.5
1.0,4.048962116241455,1.0,0,0,98,1.1691783364208526,0.5
0.0,2.1019346714019775,0.0,0,0,99,-1.5628180588487317,0.5
1.0,2.9609274864196777,1.0,0,0,100,-0.3659860326377868,0.5
1.0,3.539954423904419,0.0,0,0,101,-0.37247415896217345,0.5
0.0,3.244940757751465,0.0,0,0,102,-0.18958999458416093,0.5
1.0,2.5749294757843018,1.0,0,0,103,-1.001891471295853,0.5
1.0,4.043962478637695,0.0,0,0,104,-0.21628585389993435,0.5
1.0,3.2089390754699707,1.0,0,0,105,0.5223827921481295,0.5
0.0,4.4239349365234375,0.0,0,0,106,0.5800830124900334,0.5
1.0,2.3549323081970215,1.0,0,0,107,0.14034528682147016,0.5
1.0,2.5469298362731934,1.0,0,0,108,-0.14961002379471436,0.5
0.0,3.6579599380493164,0.0,0,0,109,-0.008691487118974646,0.5
1.0,3.961968421936035,1.0,0,0,110,0.24428893024063336,0.5
1.0,3.548954963684082,1.0,0,0,111,-0.02142478640122076,0.5
0.0,3.555955171585083,0.0,0,0,112,0.8609710774811028,0.5
1.0,3.069932460784912,1.0,0,0,113,0.40099810815650233,0.5
1.0,4.015964508056641,0.0,0,0,114,1.6829855003390748,0.5
0.0,2.2219340801239014,1.0,0,0,115,-2.529288766598428,0.5
0.0,2.556929588317871,1.0,0,0,116,-1.2937367598445877,0.5
0.0,4.566924571990967,0.0,0,0,117,0.3872675808196944,0.5
1.0,2.8229262828826904,1.0,0,0,118,0.20479936347367136,0.5
1.0,3.4349493980407715,1.0,0,0,119,-0.3850621755446252,0.5
1.0,3.9139719009399414,1.0,0,0,120,-1.3604742338539937,0.5
1.0,2.3579323291778564,1.0,0,0,121,-0.6938222914453668,0.5
1.0,2.879925489425659,1.0,0,0,122,-0.1668535943723,0.5
1.0,3.744964122772217,1.0,0,0,123,0.3925434980995969,0.5
1.0,3.278942108154297,0.0,0,0,124,0.545799688271422,0.5
0.0,3.1769375801086426,0.0,0,0,125,0.40518106149116545,0.5
1.0,4.24594783782959,1.0,0,0,126,1.3748257914448623,0.5
0.0,3.8609695434570312,1.0,0,0,127,1.446064817593625,0.5
1.0,3.07493257522583,0.0,0,0,128,-0.5174885093663445,0.5
0.0,2.4079315662384033,0.0,0,0,129,-0.857578324653794,0.5
1.0,4.241948127746582,0.0,0,0,130,-0.09230106304072147,0.5
0.0,3.1369357109069824,0.0,0,0,131,0.3364704732695065,0.5
0.0,3.2039387226104736,0.0,0,0,132,0.632090659518919,0.5
0.0,4.388937473297119,0.0,0,0,133,0.6462805371314909,0.5
1.0,3.524953842163086,1.0,0,0,134,-1.1912079595451808,0.5
1.0,4.179952621459961,1.0,0,0,135,2.134447989433516,0.5
1.0,4.267946243286133,1.0,0,0,136,0.7227217954718995,0.5
0.0,3.9559688568115234,0.0,0,0,137,-0.37696942077907036,0.5
1.0,3.7369637489318848,1.0,0,0,138,0.7798366280723362,0.5
1.0,3.084933280944824,0.0,0,0,139,-1.438249547863633,0.5
1.0,2.750927209854126,1.0,0,0,140,-0.9114400060853111,0.5
0.0,4.7009148597717285,0.0,0,0,141,-0.48474381530994676,0.5
1.0,2.694927930831909,1.0,0,0,142,-0.2818095168156278,0.5
1.0,3.9049715995788574,1.0,0,0,143,0.36836429863369347,0.5
1.0,2.6699283123016357,1.0,0,0,144,-1.5700357992175018,0.5
1.0,3.4639508724212646,1.0,0,0,145,0.14681218404010551,0.5
1.0,3.601957321166992,1.0,0,0,146,-1.582524086320373,0.5
1.0,3.3769469261169434,1.0,0,0,147,0.43788165494946807,0.5
1.0,2.9119250774383545,1.0,0,0,148,-0.6453176422662741,0.5
1.0,4.170953273773193,1.0,0,0,149,1.0750328877999238,0.5
1.0,3.291942834854126,1.0,0,0,150,-0.014551414110107685,0.5
1.0,3.1989383697509766,0.0,0,0,151,0.682720870459531,0.5
1.0,2.6719281673431396,1.0,0,0,152,-0.04010110364023092,0.5
1.0,4.201951026916504,1.0,0,0,153,0.4523448003437351,0.5
1.0,2.0839345455169678,0.0,0,0,154,-1.2937389927288259,0.5
1.0,3.847968816757202,1.0,0,0,155,-0.640133816554257,0.5
1.0,3.1969385147094727,1.0,0,0,156,0.0808398236656512,0.5
1.0,3.803966760635376,1.0,0,0,157,0.2753203092543526,0.5
1.0,4.801907539367676,1.0,0,0,158,0.030705704879511075,0.5
1.0,3.8989710807800293,0.0,0,0,159,0.09981397146209325,0.5
1.0,2.194934368133545,1.0,0,0,160,-2.1733788392865088,0.5
1.0,2.6749281883239746,1.0,0,0,161,-1.7522216399896657,0.5
1.0,3.763964891433716,1.0,0,0,162,0.7985344565816763,0.5
1.0,3.09493350982666,1.0,0,0,163,0.43506015976181545,0.5
1.0,2.9209256172180176,0.0,0,0,164,0.25673160971262926,0.5
0.0,2.6239287853240967,0.0,0,0,165,0.5639249850692786,0.5
0.0,2.012934446334839,0.0,0,0,166,-1.2877649776494051,0.5
0.0,3.54695463180542,0.0,0,0,167,0.38900733463734394,0.5
1.0,2.5399298667907715,1.0,0,0,168,-0.4233304462591277,0.5
0.0,4.03096342086792,0.0,0,0,169,0.8989184446390759,0.5
1.0,3.789966106414795,1.0,0,0,170,1.4155220485456286,0.5
1.0,3.1639368534088135,1.0,0,0,171,0.5480643821267862,0.5
1.0,4.089959144592285,1.0,0,0,172,0.372018366710015,0.5
1.0,3.3679463863372803,1.0,0,0,173,0.3895684217999853,0.5
0.0,4.090959072113037,0.0,0,0,174,-0.9808267619112511,0.5
1.0,3.1079342365264893,1.0,0,0,175,0.1368961904581492,0.5
1.0,3.1849379539489746,1.0,0,0,176,0.9159375463133901,0.5
1.0,1.9899344444274902,0.0,0,0,177,-2.237875063593389,0.5
0.0,3.333944797515869,0.0,0,0,178,-1.2235439729721964,0.5
0.0,3.1769375801086426,0.0,0,0,179,1.232615472430056,0.5
0.0,2.141934633255005,0.0,0,0,180,-0.9618104536683988,0.5
1.0,3.4119484424591064,1.0,0,0,181,-0.7210770584698523,0.5
1.0,2.5969290733337402,1.0,0,0,182,0.9618679060958778,0.5
1.0,3.6369590759277344,1.0,0,0,183,2.0469906073340667,0.5
1.0,2.0489344596862793,1.0,0,0,184,-3.1216880025937828,0.5
0.0,2.8609256744384766,0.0,0,0,185,1.8259555839325212,0.5
1.0,2.3409323692321777,0.0,0,0,186,-1.3732198628018994,0.5
1.0,4.32794189453125,1.0,0,0,187,0.60201093866631,0.5
1.0,4.084959506988525,0.0,0,0,188,1.4871379945300405,0.5
1.0,2.4479310512542725,0.0,0,0,189,0.42796816907099816,0.5
1.0,4.007965087890625,0.0,0,0,190,0.6549489921740825,0.5
1.0,3.090933322906494,1.0,0,0,191,-0.2847721937126127,0.5
0.0,2.3119328022003174,0.0,0,0,192,-0.5049757049180196,0.5
1.0,3.6709604263305664,1.0,0,0,193,-0.11631501822924895,0.5
0.0,2.8809256553649902,0.0,0,0,194,-0.8888705617221309,0.5
1.0,3.607957601547241,0.0,0,0,195,0.6514971755523999,0.5
0.0,4.633919715881348,0.0,0,0,196,0.8562656835847267,0.5
1.0,3.802966594696045,1.0,0,0,197,0.6077483061335902,0.5
1.0,3.827967882156372,0.0,0,0,198,0.21487120163904172,0.5
0.0,2.422931432723999,0.0,0,0,199,-2.27584796584271,0.5
0.0,3.4409499168395996,0.0,0,0,200,-1.0763548585665141,0.5
1.0,2.5729293823242188,0.0,0,0,201,-1.3992821994035833,0.5
1.0,2.996929168701172,1.0,0,0,202,-0.2733308863352617,0.5
1.0,3.834968090057373,1.0,0,0,203,0.9006741783791943,0.5
1.0,3.6699604988098145,1.0,0,0,204,-0.607902491421075,0.5
1.0,4.371938705444336,1.0,0,0,205,0.970137147867149,0.5
1.0,4.367938995361328,1.0,0,0,206,1.4779399658614465,0.5
1.0,2.368932008743286,1.0,0,0,207,-0.7557768049662829,0.5
1.0,4.427934646606445,1.0,0,0,208,0.3837507240108931,0.5
1.0,2.378931999206543,0.0,0,0,209,-0.3103256800001243,0.5
1.0,4.606921672821045,0.0,0,0,210,0.5874301857802489,0.5
0.0,2.507930278778076,1.0,0,0,211,-1.0557731757873103,0.5
0.0,2.520930290222168,0.0,0,0,212,0.684632140443068,0.5
0.0,4.495929718017578,0.0,0,0,213,0.45860340905640645,0.5
1.0,2.9119250774383545,1.0,0,0,214,-1.6517425423468195,0.5
1.0,4.299943923950195,1.0,0,0,215,-0.3197684257764846,0.5
1.0,2.4979305267333984,1.0,0,0,216,-0.7116002050481272,0.5
1.0,3.069932460784912,1.0,0,0,217,0.4407738697932036,0.5
1.0,2.9359261989593506,1.0,0,0,218,-0.7852664771862464,0.5
1.0,4.448933124542236,1.0,0,0,219,0.14947003936276007,0.5
0.0,2.1519346237182617,0.0,0,0,220,-0.46137179030639686,0.5
1.0,2.847925901412964,1.0,0,0,221,0.4367565310234657,0.5
1.0,2.5959291458129883,1.0,0,0,222,0.20235823117976826,0.5
1.0,3.1219348907470703,1.0,0,0,223,0.26232347186141003,0.5
1.0,3.831968069076538,1.0,0,0,224,-0.22291781770986668,0.5
1.0,4.260946750640869,1.0,0,0,225,1.3563824232664319,0.5
1.0,3.2149391174316406,1.0,0,0,226,1.6680638872155502,0.5
1.0,3.807966947555542,0.0,0,0,227,1.4509831637455712,0.5
1.0,3.598957061767578,1.0,0,0,228,0.870063062811807,0.5
1.0,3.6639602184295654,1.0,0,0,229,1.7501399357891254,0.5
1.0,2.1589348316192627,0.0,0,0,230,-1.3348629985707379,0.5
0.0,4.514928340911865,1.0,0,0,231,-0.6117757294617576,0.5
1.0,3.1479361057281494,1.0,0,0,232,-0.8631481669224833,0.5
0.0,2.5359299182891846,0.0,0,0,233,-2.567944978474946,0.5
1.0,4.113957405090332,1.0,0,0,234,0.5068926701755098,0.5
0.0,4.220949649810791,0.0,0,0,235,-0.4780873248101729,0.5
1.0,4.305943489074707,1.0,0,0,236,1.1657743189597212,0.5
0.0,4.083959579467773,0.0,0,0,237,0.6339594705441672,0.5
1.0,2.9799282550811768,1.0,0,0,238,-0.9732513509370861,0.5
1.0,4.029963493347168,1.0,0,0,239,0.45551169207439973,0.5
1.0,2.2239339351654053,1.0,0,0,240,-1.0072091403687518,0.5
1.0,3.2269396781921387,1.0,0,0,241,-0.3451770460558276,0.5
1.0,2.756927013397217,1.0,0,0,242,-0.6503921507720363,0.5
1.0,3.1289353370666504,0.0,0,0,243,-0.2533084784873493,0.5
0.0,3.809967041015625,1.0,0,0,244,0.26934570732842994,0.5
0.0,2.3989317417144775,0.0,0,0,245,-0.8071651140744269,0.5
1.0,3.047931432723999,0.0,0,0,246,-1.5055362136903088,0.5
0.0,2.6709282398223877,0.0,0,0,247,-1.2813885851133646,0.5
0.0,3.778965473175049,1.0,0,0,248,-1.9860326068621055,0.5
0.0,3.6509594917297363,0.0,0,0,249,0.031232223086224333,0.5
1.0,4.453932762145996,1.0,0,0,250,0.6187306730152051,0.5
0.0,4.631919860839844,0.0,0,0,251,0.9307298518707309,0.5
1.0,3.4439499378204346,1.0,0,0,252,0.22537738730838738,0.5
1.0,3.6169581413269043,1.0,0,0,253,0.07060723992020031,0.5
1.0,3.1689372062683105,1.0,0,0,254,1.6552278484663205,0.5
1.0,2.996929168701172,1.0,0,0,255,-1.4481929009310714,0.5
1.0,3.501952648162842,1.0,0,0,256,1.3458164515785487,0.5
1.0,2.377932071685791,0.0,0,0,257,-1.4608053485862742,0.5
1.0,4.0209641456604,1.0,0,0,258,-0.3993488087427859,0.5
1.0,3.2279398441314697,1.0,0,0,259,0.13155451795654602,0.5
1.0,3.1049342155456543,1.0,0,0,260,-8.450830834482555e-05,0.5
1.0,2.743927240371704,0.0,0,0,261,0.6250256558034769,0.5
0.0,2.6009292602539062,0.0,0,0,262,-1.5843576592321715,0.5
1.0,4.517928123474121,0.0,0,0,263,2.5074056257778294,0.5
1.0,4.271945953369141,0.0,0,0,264,-0.3993022532699852,0.5
0.0,4.723913192749023,0.0,0,0,265,0.335514647292855,0.5
0.0,4.265946388244629,0.0,0,0,266,1.7707746814188385,0.5
1.0,2.8049263954162598,1.0,0,0,267,-0.42929231376294985,0.5
1.0,3.7219629287719727,1.0,0,0,268,-0.9080317975676534,0.5
1.0,3.00892972946167,1.0,0,0,269,-0.6704015047846001,0.5
0.0,3.3889474868774414,0.0,0,0,270,-0.9156274349622133,0.5
1.0,3.2129392623901367,1.0,0,0,271,0.4837495426749679,0.5
1.0,4.055961608886719,0.0,0,0,272,1.114779963750599,0.5
0.0,3.1259350776672363,0.0,0,0,273,-0.6183445317820246,0.5
0.0,2.656928539276123,0.0,0,0,274,0.9386559711741705,0.5
1.0,2.1669347286224365,1.0,0,0,275,-0.9382362090110321,0.5
0.0,3.1819376945495605,0.0,0,0,276,-0.280488166163012,0.5
1.0,3.866969585418701,1.0,0,0,277,1.4882313119170236,0.5
1.0,3.4129486083984375,1.0,0,0,278,0.14271756179866554,0.5
1.0,2.614928960800171,1.0,0,0,279,-0.8845960340829713,0.5
1.0,2.420931339263916,1.0,0,0,280,-0.21392988150253478,0.5
1.0,4.023963928222656,1.0,0,0,281,0.20662458992761984,0.5
1.0,2.9619274139404297,1.0,0,0,282,1.9144680051485836,0.5
1.0,3.858969211578369,1.0,0,0,283,0.0035682536085552092,0.5
1.0,2.792926788330078,1.0,0,0,284,0.32184034966834635,0.5
1.0,2.321932792663574,1.0,0,0,285,-0.030710044223218116,0.5
1.0,4.502929210662842,1.0,0,0,286,0.6148873674047937,0.5
1.0,3.1359355449676514,1.0,0,0,287,0.22295466749734155,0.5
1.0,3.317944049835205,1.0,0,0,288,-0.6588696905699328,0.5
1.0,2.465930938720703,1.0,0,0,289,-0.5485203154759898,0.5
1.0,2.4889307022094727,1.0,0,0,290,-1.3202973767004078,0.5
0.0,3.026930332183838,0.0,0,0,291,-0.5707951974723617,0.5
1.0,2.375931978225708,1.0,0,0,292,-1.7807915772021505,0.5
1.0,3.314943790435791,1.0,0,0,293,1.6341069973037348,0.5
1.0,2.7859268188476562,1.0,0,0,294,-0.5229479610674601,0.5
1.0,3.574955940246582,1.0,0,0,295,0.5284667242263077,0.5
1.0,3.023930311203003,1.0,0,0,296,0.39635911660099143,0.5
1.0,3.4599506855010986,1.0,0,0,297,-0.42723474266323863,0.5
1.0,3.240940570831299,1.0,0,0,298,-0.18364799770333853,0.5
0.0,3.305943489074707,1.0,0,0,299,0.6221810399013554,0.5
1.0,3.9489693641662598,1.0,0,0,300,0.6338992904197089,0.5
0.0,3.614957809448242,0.0,0,0,301,0.5458357368341084,0.5
1.0,3.049931526184082,1.0,0,0,302,-0.9536011721674276,0.5
1.0,2.420931339263916,1.0,0,0,303,0.3909394499276298,0.5
1.0,3.276942253112793,1.0,0,0,304,0.49764562058050277,0.5
1.0,3.6409592628479004,0.0,0,0,305,0.09298648777774074,0.5
0.0,4.5099287033081055,0.0,0,0,306,0.5590819669886331,0.5
1.0,3.1169347763061523,1.0,0,0,307,0.2344404396264164,0.5
1.0,3.232940196990967,1.0,0,0,308,0.5874809602920203,0.5
1.0,3.9379701614379883,1.0,0,0,309,1.7741713269385926,0.5
1.0,3.6409592628479004,0.0,0,0,310,0.739563405669843,0.5
0.0,2.9009251594543457,1.0,0,0,311,0.5687683479316452,0.5
1.0,3.274941921234131,1.0,0,0,312,-0.6394685425301226,0.5
0.0,3.6169581413269043,0.0,0,0,313,1.8663416959612469,0.5
0.0,2.136934757232666,0.0,0,0,314,-1.7238557822284355,0.5
1.0,3.1559364795684814,0.0,0,0,315,-0.460532319022284,0.5
0.0,4.36393928527832,0.0,0,0,316,-0.17109801330204275,0.5
1.0,3.796966552734375,0.0,0,0,317,-0.432787609165529,0.5
1.0,2.562929630279541,1.0,0,0,318,-0.9705986247881292,0.5
1.0,2.5459299087524414,1.0,0,0,319,-1.1606036905965882,0.5
1.0,2.838926076889038,1.0,0,0,320,-0.11412516786891569,0.5
1.0,2.4999303817749023,1.0,0,0,321,1.2395918509460577,0.5
1.0,2.9139251708984375,0.0,0,0,322,0.43396876819256863,0.5
0.0,2.8619258403778076,0.0,0,0,323,-0.9355385595121771,0.5
1.0,3.7389636039733887,1.0,0,0,324,0.5352654190905621,0.5
1.0,4.6169209480285645,1.0,0,0,325,1.0977521500452518,0.5
1.0,4.451932907104492,1.0,0,0,326,-0.2286529107924157,0.5
1.0,3.2199394702911377,1.0,0,0,327,0.4283123680371603,0.5
1.0,3.248940944671631,1.0,0,0,328,-0.9415318069595369,0.5
1.0,3.2299399375915527,1.0,0,0,329,0.5633091861315769,0.5
0.0,3.787966012954712,0.0,0,0,330,1.641685279883231,0.5
0.0,2.432931423187256,0.0,0,0,331,-0.30912126233508735,0.5
1.0,2.8759255409240723,1.0,0,0,332,-1.2734486623648642,0.5
0.0,2.6259288787841797,1.0,0,0,333,0.30366572925795654,0.5
1.0,3.8979711532592773,1.0,0,0,334,0.5911605708602888,0.5
0.0,3.98996639251709,0.0,0,0,335,-0.19032823402690932,0.5
1.0,2.7669270038604736,1.0,0,0,336,-0.2679076521392778,0.5
1.0,3.28794264793396,1.0,0,0,337,0.10841372739109187,0.5
1.0,3.919971466064453,1.0,0,0,338,0.4288860105033948,0.5
0.0,5.034890651702881,0.0,0,0,339,1.7993578416168396,0.5
1.0,3.271941900253296,1.0,0,0,340,-0.3048863095036364,0.5
1.0,3.7499642372131348,1.0,0,0,341,1.1653745331972283,0.5
1.0,2.7839267253875732,1.0,0,0,342,-0.9101022944248429,0.5
1.0,3.7009620666503906,1.0,0,0,343,-0.6594666416823421,0.5
0.0,2.849925994873047,0.0,0,0,344,1.0868361576980106,0.5
0.0,3.6259584426879883,0.0,0,0,345,-0.1332715618116046,0.5
1.0,2.853925943374634,1.0,0,0,346,-1.0399097427391644,0.5
1.0,2.662928342819214,1.0,0,0,347,-1.2164147812767914,0.5
0.0,3.251940965652466,0.0,0,0,348,-1.6075709458045173,0.5
1.0,2.6849279403686523,1.0,0,0,349,0.6715496871819271,0.5
0.0,3.840968608856201,0.0,0,0,350,1.491045153998056,0.5
1.0,2.3919317722320557,1.0,0,0,351,0.14191242272697477,0.5
1.0,2.849925994873047,1.0,0,0,352,-0.9084171533222265,0.5
1.0,3.1679370403289795,1.0,0,0,353,-0.44170896391298986,0.5
1.0,3.7309632301330566,1.0,0,0,354,0.5063924293131449,0.5
0.0,3.7129626274108887,1.0,0,0,355,-0.6732519149757753,0.5
0.0,2.6729283332824707,0.0,0,0,356,-0.09125705862223474,0.5
1.0,4.197951316833496,1.0,0,0,357,2.8608617393474356,0.5
0.0,2.9369263648986816,0.0,0,0,358,0.33984277930936735,0.5
1.0,3.850968837738037,1.0,0,0,359,0.26508435313503037,0.5
1.0,2.383931875228882,1.0,0,0,360,-0.9209468828169417,0.5
1.0,2.4499311447143555,1.0,0,0,361,-1.8013093404114664,0.5
1.0,3.9439697265625,1.0,0,0,362,1.4050267435780888,0.5
1.0,2.188934326171875,1.0,0,0,363,-0.6396691753500922,0.5
1.0,2.468930721282959,1.0,0,0,364,-0.3980587841948759,0.5
1.0,2.7159276008605957,1.0,0,0,365,0.6830338425859143,0.5
1.0,3.1009340286254883,0.0,0,0,366,0.0732711726353414,0.5
1.0,3.9489693641662598,1.0,0,0,367,0.7282514865829628,0.5
0.0,2.3999316692352295,0.0,0,0,368,-1.676366572188518,0.5
1.0,3.043931245803833,1.0,0,0,369,1.755826890567137,0.5
0.0,3.1889381408691406,0.0,0,0,370,-1.2967334670839805,0.5
1.0,4.323942184448242,1.0,0,0,371,0.4207802322228443,0.5
1.0,3.027930498123169,0.0,0,0,372,0.6067386410454666,0.5
1.0,4.345940589904785,1.0,0,0,373,-0.490850480673465,0.5
1.0,3.6589598655700684,1.0,0,0,374,-0.20701812670596015,0.5
1.0,2.5499298572540283,1.0,0,0,375,0.37056866239057223,0.5
1.0,3.512953281402588,1.0,0,0,376,0.2091572010893316,0.5
0.0,3.6459593772888184,1.0,0,0,377,0.4976671563373085,0.5
0.0,3.2279398441314697,0.0,0,0,378,-1.3883094362829058,0.5
1.0,3.6339588165283203,1.0,0,0,379,1.5140938962745767,0.5
1.0,3.4639508724212646,1.0,0,0,380,-0.6894620197301192,0.5
1.0,3.6739606857299805,1.0,0,0,381,0.6495784109338208,0.5
1.0,3.51395320892334,0.0,0,0,382,1.1279911468575923,0.5
0.0,3.278942108154297,1.0,0,0,383,0.0015435475856412383,0.5
0.0,2.8749256134033203,0.0,0,0,384,-1.170938627522132,0.5
0.0,3.3979477882385254,0.0,0,0,385,-0.6665064843046142,0.5
1.0,2.125934600830078,1.0,0,0,386,-1.822979514928901,0.5
1.0,3.260941505432129,1.0,0,0,387,0.126354893387615,0.5
1.0,2.119934558868408,1.0,0,0,388,-2.2681812781086945,0.5
1.0,3.8689699172973633,1.0,0,0,389,0.37756759092960657,0.5
1.0,3.9439697265625,1.0,0,0,390,2.5283313130629606,0.5
1.0,4.121956825256348,1.0,0,0,391,0.32632525915838245,0.5
1.0,2.9109251499176025,1.0,0,0,392,0.6077227612283836,0.5
1.0,2.341932535171509,1.0,0,0,393,-0.5918548303623229,0.5
1.0,3.1229348182678223,0.0,0,0,394,-0.027216662482239175,0.5
1.0,3.308943748474121,0.0,0,0,395,1.1522657826351412,0.5
0.0,2.6839280128479004,1.0,0,0,396,-1.2543013552397753,0.5
1.0,2.9429264068603516,0.0,0,0,397,-1.2804050811276664,0.5
0.0,2.2699334621429443,0.0,0,0,398,-0.45841128201286807,0.5
0.0,4.151954650878906,0.0,0,0,399,-1.265961938512352,0.5
0.0,4.007965087890625,1.0,0,0,400,-1.7354443005384503,0.5
1.0,4.654918193817139,1.0,0,0,401,1.4462449573929765,0.5
1.0,4.448933124542236,1.0,0,0,402,0.5606072922962042,0.5
0.0,3.297943115234375,0.0,0,0,403,-0.22816145282960149,0.5
1.0,2.5059304237365723,1.0,0,0,404,-0.3849888723480144,0.5
1.0,3.518953323364258,0.0,0,0,405,1.461338872265898,0.5
0.0,3.9329705238342285,0.0,0,0,406,0.21337147089719902,0.5
1.0,4.831905364990234,1.0,0,0,407,1.0897366128010029,0.5
1.0,3.852969169616699,1.0,0,0,408,0.12240186433297469,0.5
1.0,3.2319400310516357,1.0,0,0,409,-0.3640458282405563,0.5
1.0,3.1399357318878174,1.0,0,0,410,-0.6673863101323841,0.5
1.0,2.702927827835083,0.0,0,0,411,-1.0373533282956668,0.5
1.0,4.425934791564941,1.0,0,0,412,0.6884132974387831,0.5
1.0,2.476930618286133,1.0,0,0,413,-0.019642342411226078,0.5
1.0,3.50095272064209,0.0,0,0,414,1.8614120742545055,0.5
0.0,3.829967975616455,0.0,0,0,415,-0.24833538980698927,0.5
1.0,4.050961971282959,1.0,0,0,416,0.7588375505597165,0.5
1.0,3.834968090057373,1.0,0,0,417,-1.1369495374622456,0.5
1.0,2.199934244155884,0.0,0,0,418,-1.9710553166958198,0.5
1.0,3.967967987060547,1.0,0,0,419,-1.2670942813302355,0.5
0.0,2.46393084526062,1.0,0,0,420,0.05261117217682936,0.5
0.0,2.9689278602600098,0.0,0,0,421,0.8674213639534267,0.5
0.0,3.086933135986328,0.0,0,0,422,-0.981449721180096,0.5
1.0,1.9809343814849854,1.0,0,0,423,-2.93883928125611,0.5
1.0,3.77996563911438,1.0,0,0,424,2.6072682507036924,0.5
1.0,2.649928569793701,1.0,0,0,425,-0.09963743321166839,0.5
1.0,2.882925510406494,1.0,0,0,426,0.28422092811056415,0.5
1.0,2.709927797317505,1.0,0,0,427,0.793170149704916,0.5
0.0,4.8729023933410645,0.0,0,0,428,1.6376515936105687,0.5
1.0,2.893925428390503,0.0,0,0,429,0.17354880975343295,0.5
1.0,4.229948997497559,1.0,0,0,430,1.432041835089745,0.5
1.0,3.2039387226104736,1.0,0,0,431,-0.1577100049682325,0.5
1.0,3.2299399375915527,1.0,0,0,432,-0.6339185837907659,0.5
1.0,2.9029252529144287,1.0,0,0,433,-0.3752611052039742,0.5
1.0,3.3449454307556152,1.0,0,0,434,-0.3590858103211705,0.5
1.0,3.023930311203003,0.0,0,0,435,-0.216078389469798,0.5
0.0,2.9579272270202637,0.0,0,0,436,-1.2319730584774637,0.5
0.0,2.603929042816162,0.0,0,0,437,-1.1824679746396252,0.5
1.0,3.258941173553467,1.0,0,0,438,0.5818590423700262,0.5
1.0,3.9729676246643066,1.0,0,0,439,0.5252877430269245,0.5
1.0,3.1619367599487305,1.0,0,0,440,-1.549794046223477,0.5
1.0,2.9479267597198486,1.0,0,0,441,-0.729750446931349,0.5
1.0,3.2189393043518066,1.0,0,0,442,-0.7978854238836272,0.5
1.0,3.325944423675537,1.0,0,0,443,0.2542340513051515,0.5
1.0,3.240940570831299,1.0,0,0,444,-0.2954594787911603,0.5
1.0,3.3659462928771973,1.0,0,0,445,0.14198434902134469,0.5
1.0,2.4029316902160645,0.0,0,0,446,0.08944071128956181,0.5
1.0,3.813967227935791,1.0,0,0,447,-0.5886311780854391,0.5
1.0,3.557955265045166,1.0,0,0,448,0.22605514581888303,0.5
1.0,3.550954818725586,1.0,0,0,449,0.33444017585125324,0.5
1.0,3.060932159423828,1.0,0,0,450,-1.668543309183199,0.5
1.0,2.8169264793395996,0.0,0,0,451,-0.17114927454819454,0.5
1.0,3.4339494705200195,1.0,0,0,452,-0.018127552824102004,0.5
1.0,2.477930784225464,1.0,0,0,453,-0.04858000667097593,0.5
1.0,3.508953094482422,1.0,0,0,454,0.5684898389675102,0.5
1.0,2.512930393218994,1.0,0,0,455,-0.7144690351446967,0.5
1.0,3.6799609661102295,1.0,0,0,456,1.689458311290166,0.5
1.0,3.794966220855713,1.0,0,0,457,0.9198224001609375,0.5
1.0,4.080959796905518,1.0,0,0,458,-0.21879452144350292,0.5
0.0,2.2509336471557617,0.0,0,0,459,-1.8955796859603264,0.5
0.0,3.6759607791900635,0.0,0,0,460,-1.096406706983456,0.5
1.0,2.9589271545410156,1.0,0,0,461,-1.2566580964135035,0.5
1.0,2.5539298057556152,1.0,0,0,462,-1.5092068714175493,0.5
1.0,2.5389299392700195,1.0,0,0,463,0.48462042912288944,0.5
1.0,2.8579258918762207,0.0,0,0,464,-1.2099610684488382,0.5
1.0,4.611921310424805,1.0,0,0,465,0.887682633893691,0.5
0.0,3.503952741622925,0.0,0,0,466,0.13049802263716678,0.5
1.0,4.490930080413818,0.0,0,0,467,3.2399345237326767,0.5
1.0,4.556925296783447,1.0,0,0,468,0.8766180374498136,0.5
1.0,3.1089344024658203,1.0,0,0,469,1.366657706708031,0.5
1.0,2.4139316082000732,1.0,0,0,470,-1.9161973212309498,0.5
1.0,2.8249263763427734,1.0,0,0,471,-0.27296438731660194,0.5
1.0,3.6689605712890625,1.0,0,0,472,0.6091337885677467,0.5
1.0,3.4739513397216797,0.0,0,0,473,0.4864296739919995,0.5
1.0,2.985928535461426,1.0,0,0,474,-1.1816691904246022,0.5
1.0,4.366939067840576,1.0,0,0,475,-0.2619062286511815,0.5
1.0,2.5489296913146973,0.0,0,0,476,-1.2200674082566334,0.5
1.0,4.015964508056641,1.0,0,0,477,2.136591219489241,0.5
0.0,2.9749279022216797,0.0,0,0,478,-0.511345223637297,0.5
1.0,4.03096342086792,1.0,0,0,479,1.263974756561072,0.5
1.0,2.565929651260376,1.0,0,0,480,0.5142863220076938,0.5
1.0,4.254947185516357,1.0,0,0,481,-0.7165201636938703,0.5
1.0,2.8079264163970947,1.0,0,0,482,1.040604256184732,0.5
1.0,3.5029525756835938,1.0,0,0,483,1.6692630653604854,0.5
1.0,3.1119344234466553,1.0,0,0,484,0.8301332043269386,0.5
0.0,4.571924209594727,1.0,0,0,485,0.3423135763961981,0.5
1.0,3.1729373931884766,1.0,0,0,486,0.7257299983351855,0.5
0.0,3.1509361267089844,0.0,0,0,487,0.047425104553886044,0.5
1.0,2.835926055908203,1.0,0,0,488,-1.4125409162782214,0.5
1.0,3.524953842163086,1.0,0,0,489,-0.830087626370179,0.5
1.0,3.296943187713623,1.0,0,0,490,-1.0343709555264209,0.5
0.0,4.2749457359313965,0.0,0,0,491,1.0639847621826855,0.5
1.0,3.018929958343506,0.0,0,0,492,0.19054678080926257,0.5
0.0,3.26794171333313,0.0,0,0,493,0.2427192420818249,0.5
1.0,3.6839611530303955,1.0,0,0,494,0.2540980301467961,0.5
0.0,3.4179487228393555,0.0,0,0,495,-1.3530101793191482,0.5
1.0,4.154954433441162,1.0,0,0,496,0.7321915892906207,0.5
1.0,3.252941131591797,1.0,0,0,497,0.8718130810891594,0.5
1.0,4.2739458084106445,1.0,0,0,498,-1.1401263626600495,0.5
1.0,2.245933771133423,1.0,0,0,499,-1.7272259219992088,0.5
1.0,4.507928848266602,1.0,0,0,500,0.7826566739681425,0.5
1.0,3.7019007205963135,1.0,1,0,1,-1.1277482017423488,0.5
0.0,4.375872611999512,1.0,1,0,2,-0.2516390518304537,0.5
0.0,2.5678658485412598,0.0,1,0,3,0.6904255918971977,0.5
1.0,3.4808902740478516,0.0,1,0,4,0.7183823283515928,0.5
0.0,3.7359023094177246,0.0,1,0,5,0.48818925750921965,0.5
1.0,2.516866683959961,1.0,1,0,6,-1.4346433714821638,0.5
1.0,3.543893337249756,1.0,1,0,7,0.6147038799628443,0.5
1.0,2.840862512588501,1.0,1,0,8,0.21224935275262757,0.5
1.0,3.2308788299560547,1.0,1,0,9,-0.37246258915759445,0.5
1.0,3.567894458770752,1.0,1,0,10,0.06604694422151604,0.5
1.0,3.2188782691955566,1.0,1,0,11,-1.125421918540965,0.5
1.0,2.9238643646240234,1.0,1,0,12,-0.4336621692657542,0.5
1.0,3.063870906829834,1.0,1,0,13,-0.9466966370965413,0.5
0.0,2.133871555328369,0.0,1,0,14,-1.2237251615033742,0.5
1.0,2.8798623085021973,1.0,1,0,15,-1.170863064105886,0.5
1.0,3.301882028579712,0.0,1,0,16,0.05423265216059171,0.5
0.0,4.689849853515625,0.0,1,0,17,1.5488048738174756,0.5
0.0,3.5208921432495117,0.0,1,0,18,0.8439906982298309,0.5
0.0,3.514892101287842,0.0,1,0,19,0.7353310481993212,0.5
1.0,3.7339022159576416,1.0,1,0,20,0.5637509419503449,0.5
1.0,3.6268973350524902,1.0,1,0,21,0.2672710750240543,0.5
1.0,2.4898669719696045,1.0,1,0,22,-1.617645560060594,0.5
1.0,3.274880886077881,1.0,1,0,23,0.10033745688025406,0.5
1.0,3.7079010009765625,1.0,1,0,24,-0.3300313582923183,0.5
1.0,3.840907096862793,1.0,1,0,25,0.42913486443510007,0.5
1.0,3.7249016761779785,0.0,1,0,26,0.25978339634210906,0.5
0.0,3.7859046459198,0.0,1,0,27,-0.5818541895961614,0.5
1.0,4.331875801086426,0.0,1,0,28,1.911623383693322,0.5
1.0,4.6328535079956055,1.0,1,0,29,0.38617637674137745,0.5
1.0,2.9838671684265137,1.0,1,0,30,-1.3658278890879199,0.5
1.0,2.9968676567077637,1.0,1,0,31,-1.5883089770424978,0.5
0.0,3.078871726989746,0.0,1,0,32,1.5040400230668747,0.5
1.0,3.2078776359558105,0.0,1,0,33,0.06417001415629132,0.5
0.0,2.8618621826171875,1.0,1,0,34,0.9960563643159768,0.5
0.0,1.9888713359832764,1.0,1,0,35,-0.978794575487182,0.5
0.0,2.18087100982666,0.0,1,0,36,0.2669190959441409,0.5
0.0,3.0208687782287598,0.0,1,0,37,0.40266650256895076,0.5
0.0,4.253881454467773,0.0,1,0,38,0.21553425153443062,0.5
1.0,3.55989408493042,0.0,1,0,39,-1.3525841722863683,0.5
0.0,2.610865354537964,0.0,1,0,40,-0.001208364405136454,0.5
0.0,3.915905714035034,0.0,1,0,41,-0.33358012126645886,0.5
0.0,3.1378743648529053,0.0,1,0,42,-0.012874930165626951,0.5
1.0,2.8498623371124268,1.0,1,0,43,-0.23402947035818653,0.5
0.0,4.070894241333008,0.0,1,0,44,-0.6032527592953011,0.5
1.0,3.296881675720215,1.0,1,0,45,-0.12966616568108083,0.5
1.0,4.530860900878906,1.0,1,0,46,1.550103910819046,0.5
1.0,3.331883430480957,1.0,1,0,47,3.197904529199106,0.5
1.0,2.8708620071411133,1.0,1,0,48,0.36729876353773905,0.5
1.0,3.8879077434539795,1.0,1,0,49,-0.4401380671745699,0.5
1.0,4.2318830490112305,0.0,1,0,50,2.866286832054372,0.5
1.0,2.9548659324645996,1.0,1,0,51,-1.3055819169687535,0.5
1.0,2.8828625679016113,1.0,1,0,52,-0.9038319414345234,0.5
1.0,3.6949005126953125,1.0,1,0,53,1.600758812765578,0.5
1.0,3.316882610321045,1.0,1,0,54,-0.8120833094067252,0.5
0.0,2.3358688354492188,0.0,1,0,55,1.2969905123949557,0.5
1.0,2.4378676414489746,1.0,1,0,56,-0.8798735923582199,0.5
1.0,2.3898682594299316,1.0,1,0,57,-1.7263309082848806,0.5
1.0,3.322883129119873,0.0,1,0,58,0.6249662030235531,0.5
0.0,3.985900640487671,0.0,1,0,59,1.0670119192507885,0.5
0.0,2.3958683013916016,0.0,1,0,60,0.16595404672131336,0.5
1.0,4.06689453125,1.0,1,0,61,0.6639584364193851,0.5
1.0,4.003899574279785,1.0,1,0,62,-0.6422834956048916,0.5
1.0,3.2248783111572266,1.0,1,0,63,0.1234513380080689,0.5
1.0,3.614896774291992,0.0,1,0,64,-1.1828218089956712,0.5
1.0,3.5248923301696777,1.0,1,0,65,-0.2570603233415622,0.5
0.0,3.2118778228759766,0.0,1,0,66,0.8275570638111469,0.5
1.0,3.640897750854492,1.0,1,0,67,2.6151938843827742,0.5
1.0,3.0018680095672607,0.0,1,0,68,0.46301567730451615,0.5
0.0,3.9359042644500732,0.0,1,0,69,1.3101776958718634,0.5
1.0,3.5208921432495117,1.0,1,0,70,0.028957278680120067,0.5
1.0,4.129890441894531,1.0,1,0,71,0.3214619496906801,0.5
1.0,3.2488794326782227,1.0,1,0,72,0.8744979611559365,0.5
1.0,4.530860900878906,1.0,1,0,73,1.1078987885129385,0.5
1.0,3.7439026832580566,1.0,1,0,74,0.46492227381093826,0.5
1.0,2.0498714447021484,1.0,1,0,75,-1.9330343930342506,0.5
1.0,3.836906909942627,1.0,1,0,76,0.3776804280281834,0.5
1.0,2.786863088607788,1.0,1,0,77,-0.8013529221121769,0.5
1.0,3.6558985710144043,1.0,1,0,78,1.0270623781700021,0.5
1.0,2.237870216369629,1.0,1,0,79,-1.020652493039348,0.5
1.0,3.810905933380127,1.0,1,0,80,0.667445994602224,0.5
1.0,2.739863872528076,1.0,1,0,81,-0.22939632000834978,0.5
0.0,1.9848713874816895,0.0,1,0,82,-1.957705562105988,0.5
1.0,3.9149057865142822,1.0,1,0,83,-0.03134660238587488,0.5
1.0,3.1578752994537354,1.0,1,0,84,0.8774459755231796,0.5
1.0,3.0128684043884277,1.0,1,0,85,1.3558018917947452,0.5
0.0,4.319876670837402,0.0,1,0,86,-0.25613304746822696,0.5
0.0,4.197885513305664,0.0,1,0,87,0.48911096241153634,0.5
1.0,3.049870252609253,1.0,1,0,88,-1.4272990642335204,0.5
0.0,2.755863666534424,0.0,1,0,89,-1.1094450257895423,0.5
1.0,2.1268715858459473,1.0,1,0,90,-1.6244205260151863,0.5
1.0,4.3768720626831055,1.0,1,0,91,0.05174590732313173,0.5
1.0,3.104872703552246,1.0,1,0,92,1.04221312227147,0.5
1.0,2.7798633575439453,1.0,1,0,93,1.4234258983441161,0.5
0.0,2.2938694953918457,0.0,1,0,94,-0.9846924855818413,0.5
1.0,3.4458887577056885,0.0,1,0,95,2.37790316322463,0.5
1.0,3.3788857460021973,1.0,1,0,96,0.2754595114599877,0.5
0.0,3.59989595413208,0.0,1,0,97,0.8369214388817345,0.5
1.0,2.5008668899536133,1.0,1,0,98,-0.8310851695663916,0.5
1.0,2.458867311477661,1.0,1,0,99,-0.6518040402968533,0.5
1.0,2.9378650188446045,0.0,1,0,100,-0.06879317357595938,0.5
0.0,2.555866241455078,0.0,1,0,101,-0.22712971787347633,0.5
1.0,2.74186372756958,1.0,1,0,102,-1.5009692891981017,0.5
1.0,2.2958693504333496,1.0,1,0,103,-0.36401863773894383,0.5
1.0,2.515866756439209,1.0,1,0,104,-0.6704868874124804,0.5
1.0,2.787863254547119,0.0,1,0,105,0.06878325652212344,0.5
0.0,2.3488688468933105,0.0,1,0,106,0.003107882074853202,0.5
0.0,2.1958706378936768,1.0,1,0,107,-1.4207593569962118,0.5
0.0,3.9479033946990967,0.0,1,0,108,0.9318709530542201,0.5
0.0,2.6658647060394287,0.0,1,0,109,-0.1330467667152038,0.5
0.0,4.135890007019043,0.0,1,0,110,0.7882587080392419,0.5
0.0,2.4468674659729004,0.0,1,0,111,-0.8200213211495365,0.5
1.0,3.366885185241699,0.0,1,0,112,0.7526237279087129,0.5
1.0,2.9798669815063477,1.0,1,0,113,-0.22744979263782622,0.5
0.0,2.551866054534912,0.0,1,0,114,-1.0885712219456383,0.5
1.0,3.7259018421173096,1.0,1,0,115,-0.5375284798659481,0.5
1.0,3.872908592224121,1.0,1,0,116,0.5334981244718044,0.5
1.0,3.7279019355773926,1.0,1,0,117,-0.9415443575779762,0.5
1.0,3.4118871688842773,1.0,1,0,118,0.14825633574525665,0.5
1.0,3.551893711090088,0.0,1,0,119,-0.2851654051983842,0.5
0.0,2.699864387512207,0.0,1,0,120,-0.5948340974050742,0.5
1.0,3.271880626678467,1.0,1,0,121,0.6733573671054309,0.5
1.0,3.8859078884124756,1.0,1,0,122,-0.6898787474085244,0.5
0.0,2.6888644695281982,0.0,1,0,123,-1.2292245510575686,0.5
1.0,3.112873077392578,1.0,1,0,124,0.5468158340438638,0.5
1.0,3.4788904190063477,0.0,1,0,125,1.0496596677495456,0.5
0.0,4.151888847351074,0.0,1,0,126,-0.6782114545268145,0.5
0.0,4.49786376953125,0.0,1,0,127,2.025950281187378,0.5
0.0,2.3028693199157715,0.0,1,0,128,-1.4822810587105624,0.5
1.0,4.366872787475586,1.0,1,0,129,-0.2835699799432692,0.5
1.0,3.530892848968506,1.0,1,0,130,-0.4629946697961504,0.5
1.0,3.899906873703003,1.0,1,0,131,0.27126312840894623,0.5
1.0,3.7579033374786377,1.0,1,0,132,-0.6953838058586895,0.5
1.0,2.5328664779663086,1.0,1,0,133,0.39579223258794943,0.5
0.0,3.800905227661133,0.0,1,0,134,-0.009947950162282193,0.5
1.0,2.6298651695251465,1.0,1,0,135,0.24284881553177254,0.5
1.0,3.0088682174682617,1.0,1,0,136,0.2580606483039826,0.5
1.0,3.611896514892578,1.0,1,0,137,0.4926143101652308,0.5
1.0,3.102872848510742,1.0,1,0,138,1.810205336134463,0.5
1.0,3.607896327972412,1.0,1,0,139,-0.5447520355853852,0.5
1.0,3.1318740844726562,1.0,1,0,140,-1.41732144171391,0.5
1.0,4.06689453125,1.0,1,0,141,0.43924373372783226,0.5
1.0,3.535892963409424,1.0,1,0,142,0.48785084833558656,0.5
1.0,2.5408663749694824,1.0,1,0,143,-1.8240681878324232,0.5
1.0,4.0988922119140625,1.0,1,0,144,-0.593886839572788,0.5
1.0,4.082893371582031,1.0,1,0,145,0.15140470226490543,0.5
1.0,2.193870782852173,1.0,1,0,146,-1.1329186007101757,0.5
1.0,4.4438676834106445,1.0,1,0,147,-0.9371705756658829,0.5
1.0,4.128890037536621,1.0,1,0,148,1.8997178174474552,0.5
1.0,2.506866693496704,0.0,1,0,149,-1.4487215723528215,0.5
0.0,2.0638716220855713,0.0,1,0,150,-1.5780242745718203,0.5
0.0,4.157888412475586,1.0,1,0,151,-1.3004694177116962,0.5
0.0,2.6338651180267334,1.0,1,0,152,-0.7880834966421233,0.5
0.0,3.879908323287964,1.0,1,0,153,2.1502824841111523,0.5
0.0,2.8068628311157227,1.0,1,0,154,0.37099718836786155,0.5
0.0,3.2598800659179688,0.0,1,0,155,-0.43002219957621646,0.5
1.0,3.7469029426574707,1.0,1,0,156,0.3040145847089372,0.5
1.0,2.8558621406555176,1.0,1,0,157,0.5036666575736772,0.5
1.0,4.062894821166992,0.0,1,0,158,0.33877889364657654,0.5
0.0,3.841907262802124,1.0,1,0,159,-1.016039302502393,0.5
0.0,3.4538891315460205,0.0,1,0,160,-0.14750469537541722,0.5
0.0,4.384871482849121,1.0,1,0,161,-0.21695874588774178,0.5
0.0,2.0518715381622314,0.0,1,0,162,-0.6142510659470095,0.5
1.0,2.3938682079315186,0.0,1,0,163,0.2617065435468635,0.5
0.0,4.035897254943848,0.0,1,0,164,1.83915783922636,0.5
1.0,3.6888999938964844,0.0,1,0,165,0.29993582894101406,0.5
0.0,4.27787971496582,1.0,1,0,166,-0.5321475572106993,0.5
0.0,3.090872287750244,0.0,1,0,167,0.5044266312959597,0.5
0.0,3.568894386291504,0.0,1,0,168,-0.0535273334809851,0.5
1.0,2.2018706798553467,1.0,1,0,169,-2.1049356469188356,0.5
1.0,2.9908676147460938,1.0,1,0,170,0.5785112516273896,0.5
1.0,4.0348968505859375,1.0,1,0,171,0.7153556745167643,0.5
1.0,4.281879425048828,1.0,1,0,172,-0.37188697013735217,0.5
1.0,3.4128870964050293,1.0,1,0,173,-0.29812910909175655,0.5
1.0,2.502866744995117,1.0,1,0,174,-1.2070361281981357,0.5
1.0,2.6848645210266113,1.0,1,0,175,-0.46767515739792875,0.5
1.0,3.1408743858337402,1.0,1,0,176,0.8021286773959233,0.5
1.0,3.338883876800537,1.0,1,0,177,1.0987911545673972,0.5
1.0,3.6728992462158203,1.0,1,0,178,-0.3441047891738658,0.5
1.0,2.661864757537842,0.0,1,0,179,0.1499754506882007,0.5
0.0,2.189870834350586,1.0,1,0,180,-0.8851790636813098,0.5
0.0,3.1388745307922363,0.0,1,0,181,-0.21957594804037983,0.5
0.0,2.190870761871338,1.0,1,0,182,0.1597435314472602,0.5
0.0,2.9408650398254395,0.0,1,0,183,1.745232874019827,0.5
0.0,2.1528713703155518,0.0,1,0,184,0.15690605776302782,0.5
1.0,4.433868408203125,1.0,1,0,185,0.8293811108696411,0.5
1.0,2.5888657569885254,1.0,1,0,186,0.1915733325175917,0.5
1.0,2.9968676567077637,1.0,1,0,187,-0.4721093374851229,0.5
1.0,2.8658621311187744,1.0,1,0,188,-0.6570488788122715,0.5
0.0,3.623897075653076,0.0,1,0,189,-0.1017953818422249,0.5
1.0,2.797863006591797,0.0,1,0,190,-0.028746146034270278,0.5
1.0,2.5358662605285645,1.0,1,0,191,-0.2220168456322945,0.5
0.0,2.0518715381622314,0.0,1,0,192,-1.3257446410488642,0.5
1.0,3.2278785705566406,1.0,1,0,193,-0.3558797232271393,0.5
1.0,2.5228664875030518,1.0,1,0,194,-0.09149712296042982,0.5
1.0,3.628897190093994,1.0,1,0,195,1.247842476261564,0.5
1.0,2.8288626670837402,0.0,1,0,196,0.7053885026301483,0.5
0.0,2.5248665809631348,1.0,1,0,197,-0.6293873280865706,0.5
0.0,3.7169013023376465,0.0,1,0,198,1.9091783874081236,0.5
1.0,4.253881454467773,1.0,1,0,199,1.6916965810849875,0.5
0.0,4.104891777038574,0.0,1,0,200,-0.24409636905456444,0.5
0.0,4.182886123657227,0.0,1,0,201,1.065440000385432,0.5
1.0,2.3168692588806152,1.0,1,0,202,-1.850685614258043,0.5
0.0,2.373868465423584,0.0,1,0,203,-0.3793590400271674,0.5
0.0,2.7798633575439453,0.0,1,0,204,-0.31496331296493535,0.5
1.0,2.9358649253845215,1.0,1,0,205,0.7667982869912434,0.5
1.0,3.344883918762207,1.0,1,0,206,0.7417879470771649,0.5
1.0,3.1418745517730713,1.0,1,0,207,-0.02199468442891371,0.5
1.0,4.308876991271973,1.0,1,0,208,0.5311728221175722,0.5
1.0,2.515866756439209,0.0,1,0,209,-0.5437561950580604,0.5
1.0,3.848907470703125,1.0,1,0,210,-0.21033661514042978,0.5
0.0,2.069871425628662,1.0,1,0,211,-1.0213306834152738,0.5
0.0,3.2248783111572266,0.0,1,0,212,0.39630944269536345,0.5
0.0,2.5708658695220947,0.0,1,0,213,-0.371614460431255,0.5
1.0,3.54689359664917,1.0,1,0,214,1.392876275727974,0.5
1.0,3.4148874282836914,1.0,1,0,215,-0.679041614462892,0.5
1.0,3.041869878768921,1.0,1,0,216,0.49105579431102886,0.5
1.0,4.334875106811523,1.0,1,0,217,0.559699567942013,0.5
1.0,3.038869857788086,1.0,1,0,218,-1.7605676587025696,0.5
1.0,3.551893711090088,1.0,1,0,219,0.35346419149761515,0.5
1.0,2.5258665084838867,1.0,1,0,220,0.465302179441287,0.5
0.0,3.1318740844726562,0.0,1,0,221,-0.9679804285098542,0.5
1.0,2.605865478515625,0.0,1,0,222,0.5867702881665569,0.5
1.0,3.375885486602783,1.0,1,0,223,0.8711932481292634,0.5
1.0,4.032896995544434,1.0,1,0,224,1.4826607504141907,0.5
1.0,3.9479033946990967,1.0,1,0,225,0.30654566493381064,0.5
1.0,3.312882423400879,0.0,1,0,226,0.038946620216915064,0.5
1.0,3.901906728744507,0.0,1,0,227,0.7542076442536017,0.5
1.0,3.851907730102539,1.0,1,0,228,-0.33106935855809033,0.5
1.0,3.5288925170898438,1.0,1,0,229,1.040685887077328,0.5
1.0,2.3958683013916016,1.0,1,0,230,1.4477812221596424,0.5
1.0,3.055870532989502,1.0,1,0,231,0.6863238845755131,0.5
1.0,3.862908363342285,1.0,1,0,232,0.11197757529817419,0.5
0.0,4.584856986999512,1.0,1,0,233,0.12594088962071898,0.5
0.0,3.851907730102539,0.0,1,0,234,1.0428166266982257,0.5
1.0,2.9298646450042725,1.0,1,0,235,-0.6511682508286447,0.5
0.0,4.54286003112793,0.0,1,0,236,1.4181300090717512,0.5
1.0,3.2008771896362305,0.0,1,0,237,0.43575653652150265,0.5
1.0,3.568894386291504,1.0,1,0,238,-0.9764215481435774,0.5
0.0,3.1608753204345703,0.0,1,0,239,-0.06882879253928827,0.5
1.0,2.9118638038635254,1.0,1,0,240,-0.3935902623271113,0.5
1.0,3.7539031505584717,1.0,1,0,241,-0.4670417469211887,0.5
0.0,2.137871503829956,0.0,1,0,242,-1.3301826032104658,0.5
1.0,3.269880533218384,1.0,1,0,243,0.4814064874052516,0.5
1.0,3.7439026832580566,1.0,1,0,244,-0.27507863227556684,0.5
0.0,4.013898849487305,0.0,1,0,245,-1.1890399744369529,0.5
1.0,2.5798659324645996,1.0,1,0,246,-0.5168328797232149,0.5
1.0,3.573894739151001,0.0,1,0,247,0.8804152977796189,0.5
1.0,4.317876815795898,1.0,1,0,248,1.1750283705390379,0.5
1.0,2.9048633575439453,0.0,1,0,249,-0.19736396265636255,0.5
1.0,2.803863048553467,0.0,1,0,250,0.3343977895692221,0.5
1.0,3.4778902530670166,1.0,1,0,251,-0.6791850731141446,0.5
1.0,2.7798633575439453,1.0,1,0,252,-0.6649241811217084,0.5
1.0,4.427868843078613,1.0,1,0,253,-0.7505014487576578,0.5
1.0,3.6858999729156494,1.0,1,0,254,-1.054425891890734,0.5
1.0,3.802905559539795,1.0,1,0,255,0.3416872469534093,0.5
1.0,3.7249016761779785,1.0,1,0,256,-0.380031348978665,0.5
1.0,3.9919002056121826,1.0,1,0,257,0.5741534923694305,0.5
1.0,3.0098683834075928,1.0,1,0,258,-0.4024794901385174,0.5
1.0,2.8708620071411133,0.0,1,0,259,-0.61373851972223,0.5
0.0,3.088871955871582,0.0,1,0,260,1.104553077233775,0.5
1.0,2.503866672515869,0.0,1,0,261,0.544967062827553,0.5
0.0,2.087871551513672,0.0,1,0,262,0.25207078789683457,0.5
0.0,1.952871322631836,0.0,1,0,263,-2.129251720134633,0.5
0.0,3.1508750915527344,0.0,1,0,264,1.636169127556163,0.5
0.0,3.2358789443969727,0.0,1,0,265,-0.3133397249550789,0.5
0.0,2.14587140083313,0.0,1,0,266,-0.4066643693973245,0.5
0.0,4.235882759094238,0.0,1,0,267,-1.0770940660098591,0.5
1.0,2.1698710918426514,1.0,1,0,268,-1.536592877670125,0.5
1.0,3.7399024963378906,1.0,1,0,269,0.4215993103956332,0.5
1.0,4.544859886169434,0.0,1,0,270,0.4983332154860743,0.5
0.0,3.27388072013855,0.0,1,0,271,-0.4123889686596926,0.5
1.0,3.349884271621704,1.0,1,0,272,-2.0290094930697964,0.5
1.0,2.4518675804138184,1.0,1,0,273,0.3555925025551814,0.5
1.0,4.48686408996582,1.0,1,0,274,2.071882243139595,0.5
1.0,3.1728758811950684,1.0,1,0,275,-0.7402063633244289,0.5
0.0,1.986871361732483,0.0,1,0,276,-1.2312618999293863,0.5
1.0,2.9008631706237793,1.0,1,0,277,0.08454410792448841,0.5
1.0,2.642864942550659,0.0,1,0,278,-0.8445611157726971,0.5
0.0,3.2468795776367188,0.0,1,0,279,-0.3933249146349196,0.5
1.0,3.4908909797668457,1.0,1,0,280,0.5841426419244626,0.5
1.0,3.787904739379883,1.0,1,0,281,1.175212779867562,0.5
1.0,2.8758621215820312,1.0,1,0,282,-0.27063748918293157,0.5
1.0,3.575894832611084,0.0,1,0,283,-0.252023404515212,0.5
0.0,3.4768900871276855,0.0,1,0,284,-1.3606682578672387,0.5
1.0,4.565858840942383,1.0,1,0,285,0.8302397618185351,0.5
1.0,3.015868663787842,1.0,1,0,286,1.2659421919445264,0.5
1.0,3.354884624481201,1.0,1,0,287,0.7461104034467689,0.5
0.0,2.551866054534912,0.0,1,0,288,0.0698218245815087,0.5
1.0,2.4318675994873047,0.0,1,0,289,-0.891028711425834,0.5
1.0,3.61289644241333,1.0,1,0,290,-0.25693830565535297,0.5
1.0,4.016898155212402,0.0,1,0,291,0.7655417387071037,0.5
0.0,2.083871603012085,1.0,1,0,292,-0.8680715551284375,0.5
0.0,2.756863594055176,1.0,1,0,293,1.2196298702642647,0.5
0.0,2.9358649253845215,0.0,1,0,294,0.30952544428836504,0.5
0.0,3.05487060546875,0.0,1,0,295,-1.2450165287197417,0.5
1.0,3.617896795272827,1.0,1,0,296,0.2414197021952438,0.5
0.0,2.426867723464966,0.0,1,0,297,-0.6500848568795197,0.5
1.0,2.7768633365631104,1.0,1,0,298,-1.457163766037335,0.5
1.0,2.9078636169433594,1.0,1,0,299,0.49245494735070905,0.5
0.0,2.9758667945861816,0.0,1,0,300,-0.2840906345441067,0.5
1.0,4.339875221252441,1.0,1,0,301,-0.12500691626084115,0.5
1.0,3.289881467819214,1.0,1,0,302,-0.9118046747108255,0.5
1.0,3.086872100830078,1.0,1,0,303,-0.7450121627341432,0.5
1.0,2.560866117477417,1.0,1,0,304,-1.7180531660326304,0.5
1.0,2.6868643760681152,1.0,1,0,305,-0.6653979520392219,0.5
1.0,4.025897979736328,0.0,1,0,306,0.696778427373799,0.5
1.0,2.5928657054901123,1.0,1,0,307,0.25779811108699374,0.5
1.0,2.8248627185821533,1.0,1,0,308,-0.9980816470691853,0.5
1.0,3.564894199371338,1.0,1,0,309,0.30028588776625764,0.5
1.0,4.117891311645508,1.0,1,0,310,1.7432755484339864,0.5
1.0,3.5218923091888428,1.0,1,0,311,1.2342654692728563,0.5
1.0,2.9118638038635254,0.0,1,0,312,0.534753238285662,0.5
1.0,2.9788670539855957,1.0,1,0,313,-0.2466884593276813,0.5
1.0,2.842862367630005,1.0,1,0,314,-1.2277915490441635,0.5
1.0,2.7198638916015625,1.0,1,0,315,-1.2967686075313793,0.5
1.0,2.783863067626953,1.0,1,0,316,0.9248328343518702,0.5
1.0,3.821906328201294,1.0,1,0,317,-0.45163545701179286,0.5
1.0,2.9498655796051025,1.0,1,0,318,-0.3226666033482627,0.5
1.0,2.9048633575439453,1.0,1,0,319,0.13822451374596828,0.5
1.0,3.360884666442871,0.0,1,0,320,0.6360124652231962,0.5
0.0,3.5098917484283447,0.0,1,0,321,1.8463556898502769,0.5
1.0,4.229883193969727,1.0,1,0,322,2.0292064268267254,0.5
0.0,3.880908250808716,0.0,1,0,323,0.7038526834019069,0.5
1.0,2.6768646240234375,1.0,1,0,324,1.0787163013895382,0.5
1.0,2.8068628311157227,1.0,1,0,325,0.6721740707439975,0.5
1.0,3.547893524169922,1.0,1,0,326,0.3053048429477898,0.5
1.0,3.278881072998047,0.0,1,0,327,-0.28634183553780956,0.5
0.0,4.20588493347168,1.0,1,0,328,1.3907453776573793,0.5
0.0,3.625897169113159,0.0,1,0,329,-1.1301791534132777,0.5
0.0,4.146888732910156,0.0,1,0,330,0.6540426512361306,0.5
0.0,3.801905393600464,0.0,1,0,331,-0.7741854452799132,0.5
1.0,2.7658634185791016,1.0,1,0,332,-1.332978740204923,0.5
1.0,4.360873222351074,1.0,1,0,333,1.4544957733211563,0.5
1.0,2.9638662338256836,1.0,1,0,334,1.0881319923017203,0.5
1.0,2.8878626823425293,1.0,1,0,335,-0.1703114830153579,0.5
1.0,2.415867805480957,0.0,1,0,336,-0.21924541136174736,0.5
0.0,4.390871047973633,0.0,1,0,337,1.1000271022430808,0.5
1.0,3.560894012451172,1.0,1,0,338,-1.4107085156925172,0.5
1.0,3.3988866806030273,0.0,1,0,339,-0.2569158180635526,0.5
1.0,3.4298880100250244,1.0,1,0,340,-0.4095040049370569,0.5
1.0,3.565894365310669,1.0,1,0,341,-0.5480874075645468,0.5
1.0,3.1988773345947266,1.0,1,0,342,0.11767792775397622,0.5
1.0,3.0008678436279297,1.0,1,0,343,-1.2911370616736042,0.5
1.0,3.364884853363037,1.0,1,0,344,-0.6574497543922648,0.5
1.0,2.7258639335632324,1.0,1,0,345,0.27452330460389757,0.5
1.0,2.8548622131347656,1.0,1,0,346,0.866438376613754,0.5
1.0,3.523892402648926,0.0,1,0,347,-0.23098249286240374,0.5
0.0,2.9588661193847656,0.0,1,0,348,0.655090865486237,0.5
0.0,2.7608635425567627,0.0,1,0,349,-0.7678916721387815,0.5
1.0,3.869908571243286,0.0,1,0,350,2.1129521957177846,0.5
0.0,2.5938656330108643,0.0,1,0,351,-0.6117365385751071,0.5
0.0,3.8819081783294678,0.0,1,0,352,0.0013337644494519298,0.5
0.0,3.7259018421173096,0.0,1,0,353,-0.20334701895952895,0.5
0.0,3.568894386291504,0.0,1,0,354,0.17897872839865075,0.5
0.0,3.862908363342285,1.0,1,0,355,0.01407842540547806,0.5
0.0,3.091872215270996,0.0,1,0,356,-1.082708118035301,0.5
0.0,4.129890441894531,1.0,1,0,357,-0.09566244649752162,0.5
0.0,4.199885368347168,0.0,1,0,358,2.1583636663131514,0.5
0.0,3.304882049560547,0.0,1,0,359,-1.540555172396929,0.5
1.0,3.9679019451141357,1.0,1,0,360,1.4597908746744557,0.5
1.0,3.6598987579345703,1.0,1,0,361,1.475831365419984,0.5
1.0,3.581895112991333,1.0,1,0,362,0.30035014619719447,0.5
1.0,3.6308975219726562,1.0,1,0,363,0.7725988600759507,0.5
1.0,2.5378663539886475,1.0,1,0,364,-1.8018488029707327,0.5
1.0,3.136874198913574,1.0,1,0,365,0.632524865614233,0.5
1.0,3.2608799934387207,1.0,1,0,366,1.0265210243690215,0.5
0.0,2.1998705863952637,0.0,1,0,367,-1.335020650256743,0.5
1.0,4.124890327453613,1.0,1,0,368,0.46253931706110496,0.5
1.0,2.787863254547119,1.0,1,0,369,-0.9957346293489524,0.5
1.0,3.2218782901763916,1.0,1,0,370,-0.11435665309267043,0.5
0.0,2.08087158203125,0.0,1,0,371,-1.2522742967199734,0.5
1.0,3.859908103942871,0.0,1,0,372,1.247247486664916,0.5
1.0,3.4928908348083496,1.0,1,0,373,-1.113463280551911,0.5
1.0,3.9049065113067627,1.0,1,0,374,1.0808920847631218,0.5
0.0,4.2488813400268555,0.0,1,0,375,0.4503854097914246,0.5
1.0,2.460867404937744,0.0,1,0,376,-0.3587569023366885,0.5
0.0,3.80590558052063,0.0,1,0,377,0.3768921595650789,0.5
0.0,3.814906120300293,0.0,1,0,378,-0.17204704314620625,0.5
0.0,3.6758995056152344,0.0,1,0,379,0.981464556124117,0.5
1.0,4.032896995544434,1.0,1,0,380,-0.7062785583995159,0.5
0.0,2.429867744445801,0.0,1,0,381,0.02176072222243592,0.5
0.0,3.4048867225646973,0.0,1,0,382,-0.8467532767959369,0.5
1.0,2.186870813369751,1.0,1,0,383,-2.0601581189723848,0.5
1.0,2.68986439704895,1.0,1,0,384,-1.227434834138038,0.5
1.0,3.938904047012329,1.0,1,0,385,0.35780345671098,0.5
1.0,2.704864263534546,0.0,1,0,386,-1.0847367193334974,0.5
1.0,2.230870246887207,1.0,1,0,387,-2.0709661171849962,0.5
0.0,3.4128870964050293,0.0,1,0,388,0.21371307286854693,0.5
1.0,3.1478748321533203,1.0,1,0,389,1.747345839017108,0.5
1.0,4.141889572143555,1.0,1,0,390,0.4917291741567792,0.5
1.0,3.7519030570983887,0.0,1,0,391,0.40820478596785864,0.5
0.0,2.555866241455078,0.0,1,0,392,-0.46177108734470895,0.5
1.0,2.6818645000457764,1.0,1,0,393,-0.30558857074995255,0.5
1.0,4.340874671936035,1.0,1,0,394,0.4421584402849708,0.5
1.0,3.7769041061401367,1.0,1,0,395,0.25482884753481494,0.5
1.0,3.9319045543670654,1.0,1,0,396,0.30743682295625996,0.5
1.0,2.6418650150299072,1.0,1,0,397,-0.17721174589266844,0.5
0.0,2.2558698654174805,0.0,1,0,398,-2.2795558112847747,0.5
1.0,4.088892936706543,0.0,1,0,399,0.2540371864485923,0.5
0.0,2.9968676567077637,0.0,1,0,400,-0.35926728733048713,0.5
0.0,3.021868944168091,1.0,1,0,401,0.12702327985256764,0.5
0.0,3.837907075881958,0.0,1,0,402,2.3047209734040623,0.5
0.0,2.692864418029785,0.0,1,0,403,-0.5663168137335268,0.5
0.0,3.6698992252349854,0.0,1,0,404,1.4440129477368495,0.5
1.0,2.607865333557129,1.0,1,0,405,-1.9788801940320506,0.5
1.0,2.223870277404785,1.0,1,0,406,-1.5495420251515362,0.5
1.0,4.540860176086426,1.0,1,0,407,1.1361172620458533,0.5
1.0,3.4258878231048584,0.0,1,0,408,-0.011044066798814959,0.5
1.0,2.801862955093384,0.0,1,0,409,-1.301846154915745,0.5
0.0,2.7298638820648193,0.0,1,0,410,-0.16071464608282204,0.5
1.0,4.45086669921875,1.0,1,0,411,0.6734214823792184,0.5
1.0,2.413867950439453,0.0,1,0,412,-1.2518752762213887,0.5
1.0,3.7559032440185547,1.0,1,0,413,0.20010158674536863,0.5
1.0,4.725847244262695,0.0,1,0,414,2.070444983596193,0.5
1.0,2.787863254547119,1.0,1,0,415,-1.5359784609342584,0.5
0.0,4.035897254943848,0.0,1,0,416,0.7390452646657371,0.5
1.0,3.7029008865356445,1.0,1,0,417,-0.37405664771948516,0.5
1.0,3.4148874282836914,1.0,1,0,418,-0.6374073251152066,0.5
1.0,3.095872402191162,0.0,1,0,419,1.1937298668565328,0.5
0.0,3.29388165473938,0.0,1,0,420,-0.6616206597477483,0.5
0.0,3.943903684616089,0.0,1,0,421,-0.2192473367786122,0.5
1.0,3.6818997859954834,1.0,1,0,422,0.6229643511916145,0.5
1.0,3.377885580062866,1.0,1,0,423,0.7600443338841205,0.5
1.0,3.304882049560547,1.0,1,0,424,0.37670021290875766,0.5
1.0,3.377885580062866,1.0,1,0,425,1.2873316420293148,0.5
1.0,2.410867929458618,1.0,1,0,426,0.46495440561736856,0.5
1.0,4.171887397766113,1.0,1,0,427,0.38885124882923616,0.5
1.0,3.036869525909424,0.0,1,0,428,0.6325430472311684,0.5
1.0,4.508862495422363,1.0,1,0,429,1.548486787143986,0.5
1.0,2.755863666534424,1.0,1,0,430,0.8407205151309255,0.5
1.0,3.3828859329223633,1.0,1,0,431,0.9054729605188322,0.5
0.0,3.4248876571655273,0.0,1,0,432,0.3225633213491668,0.5
0.0,2.8888626098632812,0.0,1,0,433,-0.5543569269429621,0.5
1.0,3.2218782901763916,0.0,1,0,434,-0.0315655270081443,0.5
0.0,3.9319045543670654,0.0,1,0,435,-0.3226072288282744,0.5
1.0,3.7849044799804688,1.0,1,0,436,1.3284669589208329,0.5
0.0,2.571866035461426,0.0,1,0,437,0.47325015044700075,0.5
0.0,3.6818997859954834,0.0,1,0,438,-1.0383440084044628,0.5
1.0,4.369873046875,1.0,1,0,439,1.0408235613076922,0.5
0.0,3.895907163619995,0.0,1,0,440,1.9805011125798804,0.5
1.0,3.3998866081237793,1.0,1,0,441,0.5708471577343843,0.5
0.0,3.793905019760132,0.0,1,0,442,0.8513820633474466,0.5
1.0,3.1348743438720703,1.0,1,0,443,0.6279651009824763,0.5
1.0,2.3858683109283447,1.0,1,0,444,-1.9905253208943146,0.5
1.0,3.286881446838379,1.0,1,0,445,-0.24681192117137132,0.5
1.0,3.096872329711914,1.0,1,0,446,-1.282668890272878,0.5
1.0,2.6268651485443115,1.0,1,0,447,-0.4719698820396094,0.5
1.0,2.6848645210266113,1.0,1,0,448,0.71519509200897,0.5
1.0,3.0008678436279297,1.0,1,0,449,0.07329491430228989,0.5
1.0,3.874908685684204,1.0,1,0,450,0.978756180155578,0.5
1.0,4.638853073120117,1.0,1,0,451,0.055017700014345326,0.5
1.0,3.2238783836364746,0.0,1,0,452,0.38125180102743933,0.5
0.0,2.552866220474243,0.0,1,0,453,-0.5495431503766007,0.5
0.0,2.4908668994903564,0.0,1,0,454,-1.3422694013579555,0.5
1.0,2.5788657665252686,1.0,1,0,455,0.707793520060457,0.5
1.0,2.876862049102783,1.0,1,0,456,0.7847631898960934,0.5
1.0,2.8258626461029053,1.0,1,0,457,-0.35963653781146093,0.5
1.0,2.458867311477661,1.0,1,0,458,1.0731510635468153,0.5
1.0,3.7479028701782227,0.0,1,0,459,0.9421901794374632,0.5
1.0,2.6258652210235596,0.0,1,0,460,0.30557609225206117,0.5
0.0,4.341875076293945,0.0,1,0,461,-0.667469823777584,0.5
1.0,4.362873077392578,0.0,1,0,462,0.2739017989705971,0.5
0.0,3.982900857925415,0.0,1,0,463,1.2093892787280733,0.5
0.0,3.057870626449585,0.0,1,0,464,-0.8519389453906291,0.5
1.0,2.1658711433410645,1.0,1,0,465,-2.564518558052634,0.5
1.0,3.262880325317383,0.0,1,0,466,-1.5723165905834815,0.5
0.0,3.627897262573242,0.0,1,0,467,-0.41443823299378396,0.5
0.0,3.7419025897979736,0.0,1,0,468,2.122310884579212,0.5
0.0,4.569858551025391,0.0,1,0,469,-0.0031685230187497265,0.5
1.0,3.302882194519043,1.0,1,0,470,0.38771432252361515,0.5
1.0,3.544893264770508,1.0,1,0,471,-0.007674692869721852,0.5
1.0,2.6868643760681152,1.0,1,0,472,0.04505025609230694,0.5
1.0,3.1738760471343994,1.0,1,0,473,0.6052859871797441,0.5
1.0,2.473867177963257,1.0,1,0,474,-0.6075680493558455,0.5
1.0,3.310882568359375,0.0,1,0,475,-0.6558717838948391,0.5
1.0,3.4778902530670166,1.0,1,0,476,0.3432165258725228,0.5
1.0,3.590895652770996,1.0,1,0,477,1.372737588589512,0.5
1.0,3.1358742713928223,0.0,1,0,478,1.1011760226716287,0.5
0.0,2.8888626098632812,0.0,1,0,479,-1.9821944155024627,0.5
0.0,3.613896608352661,1.0,1,0,480,-1.253002143060358,0.5
0.0,3.542893409729004,0.0,1,0,481,0.058338342023192304,0.5
0.0,3.352884292602539,1.0,1,0,482,0.7207596724622094,0.5
0.0,4.15988826751709,0.0,1,0,483,1.2304438798664217,0.5
1.0,4.025897979736328,0.0,1,0,484,0.345777655742599,0.5
1.0,4.642852783203125,1.0,1,0,485,1.0214078625433736,0.5
1.0,3.384885787963867,1.0,1,0,486,-0.1584932148733403,0.5
1.0,2.9978678226470947,1.0,1,0,487,0.1947674066126893,0.5
1.0,3.6788997650146484,1.0,1,0,488,-0.6041492425999435,0.5
1.0,3.3918862342834473,1.0,1,0,489,0.943435077373807,0.5
0.0,3.917905569076538,1.0,1,0,490,0.09515002369897299,0.5
1.0,2.9398651123046875,1.0,1,0,491,-0.3551327119955268,0.5
1.0,4.0568952560424805,0.0,1,0,492,-0.3676867546685724,0.5
1.0,4.27687931060791,1.0,1,0,493,0.7715160412505032,0.5
0.0,3.798905372619629,0.0,1,0,494,1.4943148897350762,0.5
1.0,3.334883689880371,1.0,1,0,495,1.255738187618769,0.5
1.0,3.279881000518799,1.0,1,0,496,-0.6643106677333604,0.5
1.0,2.594865560531616,0.0,1,0,497,0.8638592325341563,0.5
1.0,4.096892356872559,0.0,1,0,498,1.0449193023694645,0.5
0.0,3.601896047592163,0.0,1,0,499,1.052984850129262,0.5
0.0,1.9348713159561157,0.0,1,0,500,-1.5637748317228348,0.5
0.0,3.623718023300171,0.0,2,0,1,0.5896049627013205,0.5
0.0,2.2806906700134277,0.0,2,0,2,-1.460420078317041,0.5
0.0,4.128711223602295,0.0,2,0,3,-0.5031846665256421,0.5
0.0,3.5357139110565186,1.0,2,0,4,0.20067884268415404,0.5
1.0,3.7657246589660645,1.0,2,0,5,-0.3937904173125512,0.5
1.0,3.7327232360839844,1.0,2,0,6,-0.4984242221225374,0.5
1.0,4.424689769744873,1.0,2,0,7,0.8322187164881357,0.5
0.0,4.531682014465332,1.0,2,0,8,0.10934383360004477,0.5
0.0,4.1827073097229,0.0,2,0,9,1.2931559462430728,0.5
0.0,3.458710193634033,0.0,2,0,10,0.9177339317918356,0.5
1.0,3.0246901512145996,0.0,2,0,11,0.6896872731026344,0.5
0.0,3.175697088241577,0.0,2,0,12,-0.5211424517560165,0.5
0.0,2.1096925735473633,0.0,2,0,13,-0.5483689990263801,0.5
0.0,1.9446922540664673,0.0,2,0,14,-2.013012222708161,0.5
0.0,3.12469482421875,0.0,2,0,15,1.565703073764499,0.5
0.0,3.840728282928467,0.0,2,0,16,1.9697779887424511,0.5
0.0,3.668720245361328,0.0,2,0,17,0.5830436757231144,0.5
1.0,2.506687641143799,1.0,2,0,18,-1.6032220312243284,0.5
1.0,2.318690061569214,1.0,2,0,19,-0.5492275762661921,0.5
0.0,2.899684190750122,0.0,2,0,20,-0.3260959034801309,0.5
1.0,2.357689619064331,1.0,2,0,21,-1.4570897468800492,0.5
1.0,3.8857288360595703,1.0,2,0,22,0.9239232361355671,0.5
1.0,4.142710208892822,0.0,2,0,23,1.85615823485136,0.5
0.0,2.274690628051758,0.0,2,0,24,0.6114886266756782,0.5
0.0,2.319690227508545,1.0,2,0,25,-0.7447105439869759,0.5
0.0,2.6116864681243896,1.0,2,0,26,0.6068201185538118,0.5
0.0,2.0866925716400146,0.0,2,0,27,1.1292402663637795,0.5
0.0,3.690721035003662,0.0,2,0,28,-1.326265968388796,0.5
0.0,2.1916918754577637,0.0,2,0,29,0.4070882670938559,0.5
1.0,4.062716007232666,1.0,2,0,30,-0.21682039524777852,0.5
1.0,3.2607011795043945,1.0,2,0,31,-0.6344787001259597,0.5
1.0,2.9536867141723633,1.0,2,0,32,0.7734318475938491,0.5
1.0,2.3896892070770264,1.0,2,0,33,-1.3613243580673913,0.5
1.0,2.934685707092285,0.0,2,0,34,-1.3358068213324648,0.5
1.0,4.091713905334473,1.0,2,0,35,-0.27920835913628633,0.5
1.0,3.957723617553711,1.0,2,0,36,-0.472558063828083,0.5
0.0,2.070692539215088,0.0,2,0,37,-1.8211228381316484,0.5
1.0,2.6266860961914062,1.0,2,0,38,0.08856378684801752,0.5
1.0,4.022718906402588,0.0,2,0,39,0.35560548188139657,0.5
1.0,3.913726806640625,1.0,2,0,40,1.528677824182076,0.5
1.0,2.775684356689453,1.0,2,0,41,-1.848400104736815,0.5
1.0,4.048717021942139,1.0,2,0,42,0.6412631338672935,0.5
1.0,3.11769437789917,1.0,2,0,43,-1.3266277447881536,0.5
1.0,2.638686180114746,1.0,2,0,44,-0.33142760676954464,0.5
1.0,3.4597103595733643,1.0,2,0,45,1.3714699531327494,0.5
1.0,2.694685459136963,1.0,2,0,46,0.29699083866423925,0.5
1.0,3.2156989574432373,1.0,2,0,47,0.8942892283340275,0.5
1.0,3.8817291259765625,1.0,2,0,48,0.8860030483586117,0.5
1.0,4.262701511383057,1.0,2,0,49,-1.1084349346365128,0.5
1.0,3.345705032348633,1.0,2,0,50,0.5777008927888496,0.5
0.0,2.8606832027435303,0.0,2,0,51,-0.4147704650484586,0.5
0.0,2.354689598083496,0.0,2,0,52,0.19146269048383216,0.5
1.0,3.356705665588379,1.0,2,0,53,-0.6057567790427398,0.5
1.0,3.8287277221679688,1.0,2,0,54,1.0126335544236857,0.5
0.0,2.595686674118042,0.0,2,0,55,0.4520517999302445,0.5
1.0,2.4876880645751953,0.0,2,0,56,-1.5184597820329753,0.5
1.0,3.4517099857330322,0.0,2,0,57,0.14746040721102893,0.5
0.0,4.102713108062744,0.0,2,0,58,-0.05610181785672352,0.5
1.0,4.611676216125488,1.0,2,0,59,0.946737654220073,0.5
0.0,3.0746922492980957,0.0,2,0,60,-0.3683786629581988,0.5
1.0,2.876683235168457,1.0,2,0,61,0.6091514040041066,0.5
1.0,3.5407142639160156,1.0,2,0,62,0.5006623286708546,0.5
1.0,2.8146839141845703,1.0,2,0,63,0.1446274474496084,0.5
1.0,3.2296996116638184,1.0,2,0,64,0.8263642375526036,0.5
1.0,2.7556846141815186,1.0,2,0,65,-1.390946090684915,0.5
1.0,2.7616844177246094,0.0,2,0,66,-0.9207427142275423,0.5
0.0,3.7367234230041504,0.0,2,0,67,0.7920449945983405,0.5
0.0,2.599686622619629,0.0,2,0,68,-0.1355669689564486,0.5
0.0,3.5597150325775146,1.0,2,0,69,0.30962480338623843,0.5
0.0,2.1506922245025635,0.0,2,0,70,0.14057706813866055,0.5
1.0,3.959723472595215,1.0,2,0,71,0.648777489907731,0.5
1.0,3.134695053100586,1.0,2,0,72,0.5349496607542886,0.5
0.0,2.302690267562866,0.0,2,0,73,-0.798767926035987,0.5
1.0,2.589686632156372,1.0,2,0,74,-1.5300602383850759,0.5
1.0,2.896684169769287,0.0,2,0,75,0.07370126209100393,0.5
0.0,2.2036917209625244,0.0,2,0,76,-0.7729300492163113,0.5
0.0,2.1406924724578857,1.0,2,0,77,-0.7574042972691174,0.5
0.0,3.4727110862731934,1.0,2,0,78,1.2007172445755536,0.5
0.0,2.9996888637542725,1.0,2,0,79,-1.0312795170465243,0.5
0.0,1.9766923189163208,0.0,2,0,80,-0.4336776920758919,0.5
1.0,4.305698394775391,0.0,2,0,81,0.5518156166542741,0.5
0.0,2.4276888370513916,0.0,2,0,82,1.8948341801584394,0.5
0.0,3.2717015743255615,1.0,2,0,83,0.581413986050676,0.5
0.0,3.2346997261047363,0.0,2,0,84,1.0846304475648898,0.5
0.0,3.10469388961792,1.0,2,0,85,-0.4148681203299107,0.5
0.0,3.0406908988952637,0.0,2,0,86,3.449721895891417,0.5
0.0,2.9956886768341064,0.0,2,0,87,-1.4540002127133287,0.5
1.0,3.351705312728882,1.0,2,0,88,0.39976740957691026,0.5
1.0,3.407707929611206,0.0,2,0,89,0.8411398470735437,0.5
0.0,4.083714485168457,0.0,2,0,90,0.7048773042709496,0.5
1.0,2.8516833782196045,1.0,2,0,91,0.4897092423547676,0.5
1.0,3.7897257804870605,1.0,2,0,92,1.128593900752436,0.5
1.0,3.183697462081909,1.0,2,0,93,1.1743127174489294,0.5
1.0,3.9087271690368652,1.0,2,0,94,0.7624778497621856,0.5
1.0,2.6166863441467285,1.0,2,0,95,-0.5197424645936954,0.5
1.0,3.7767252922058105,1.0,2,0,96,-0.6506756029199088,0.5
0.0,3.393707275390625,0.0,2,0,97,-0.4706365134345212,0.5
1.0,3.352705478668213,1.0,2,0,98,0.6197088451611751,0.5
1.0,3.93672513961792,1.0,2,0,99,1.1577117981391662,0.5
1.0,2.9616870880126953,0.0,2,0,100,-1.0747952631429036,0.5
1.0,3.4877116680145264,0.0,2,0,101,0.08549599347764575,0.5
0.0,3.4907116889953613,0.0,2,0,102,1.0808592610464438,0.5
1.0,3.604717254638672,1.0,2,0,103,1.120708094625386,0.5
1.0,2.736684799194336,1.0,2,0,104,-0.8462833423022744,0.5
1.0,4.165708541870117,1.0,2,0,105,2.785097133280968,0.5
1.0,3.5327138900756836,0.0,2,0,106,-1.0507646294168609,0.5
1.0,2.780684232711792,1.0,2,0,107,-0.6451635101384635,0.5
1.0,3.2236993312835693,1.0,2,0,108,0.17348413971245402,0.5
1.0,3.4927120208740234,1.0,2,0,109,0.6817075709901746,0.5
1.0,3.12469482421875,1.0,2,0,110,0.4486748380934906,0.5
1.0,2.7506847381591797,0.0,2,0,111,1.7120330142529234,0.5
1.0,2.886683464050293,1.0,2,0,112,-1.9168734443279412,0.5
1.0,3.0366907119750977,1.0,2,0,113,-0.8637219117084215,0.5
1.0,3.7757251262664795,1.0,2,0,114,-0.6442775482651769,0.5
1.0,3.7967262268066406,0.0,2,0,115,0.19585044903116697,0.5
0.0,4.5226826667785645,1.0,2,0,116,0.7505765607187881,0.5
0.0,2.352689743041992,0.0,2,0,117,-0.8118529859115096,0.5
0.0,3.8477284908294678,0.0,2,0,118,1.6859582825236583,0.5
0.0,4.1827073097229,0.0,2,0,119,2.5320774081091026,0.5
0.0,3.422708511352539,1.0,2,0,120,1.3822995595238576,0.5
0.0,2.053692579269409,0.0,2,0,121,0.5526265228678441,0.5
0.0,2.881683349609375,0.0,2,0,122,-1.2569769647925033,0.5
1.0,4.44868803024292,1.0,2,0,123,1.1174338016800367,0.5
1.0,3.462710380554199,0.0,2,0,124,-0.2980505187421078,0.5
0.0,4.1367106437683105,0.0,2,0,125,0.45627481212405874,0.5
0.0,2.498687744140625,0.0,2,0,126,0.07943887418136106,0.5
0.0,3.5737156867980957,0.0,2,0,127,1.6771026959361413,0.5
1.0,3.5737156867980957,1.0,2,0,128,1.6455983033690997,0.5
1.0,2.7556846141815186,0.0,2,0,129,-0.1593070419220803,0.5
0.0,4.335696220397949,1.0,2,0,130,0.45150339850888743,0.5
0.0,2.073692560195923,0.0,2,0,131,0.8664813533931751,0.5
1.0,4.2667012214660645,1.0,2,0,132,0.1247891138210407,0.5
0.0,2.2466909885406494,0.0,2,0,133,-1.7514862217929967,0.5
1.0,3.394707202911377,1.0,2,0,134,-1.027120089751022,0.5
0.0,3.8107266426086426,0.0,2,0,135,0.8933061967884305,0.5
1.0,4.346695423126221,0.0,2,0,136,1.0045760422864571,0.5
0.0,3.445709705352783,1.0,2,0,137,-0.4864611747302131,0.5
0.0,3.2577009201049805,0.0,2,0,138,-0.01799023150264248,0.5
0.0,3.2667012214660645,0.0,2,0,139,-0.4518701685349363,0.5
0.0,3.5377140045166016,0.0,2,0,140,-0.8171103198714504,0.5
0.0,2.7666845321655273,1.0,2,0,141,-0.10593408328545857,0.5
0.0,3.428709030151367,0.0,2,0,142,0.20140022258851484,0.5
0.0,3.0336904525756836,0.0,2,0,143,1.117913487115109,0.5
1.0,2.8106837272644043,1.0,2,0,144,-0.4902416962665925,0.5
1.0,1.9456923007965088,1.0,2,0,145,-2.806441806371189,0.5
1.0,2.6766855716705322,1.0,2,0,146,-0.04904020561340196,0.5
0.0,2.6596858501434326,1.0,2,0,147,-1.2052941127379866,0.5
0.0,3.7537240982055664,0.0,2,0,148,-0.4890357953124225,0.5
1.0,3.1926980018615723,0.0,2,0,149,0.012404774103660617,0.5
1.0,3.9297256469726562,0.0,2,0,150,-0.2093821157957677,0.5
0.0,1.9746923446655273,0.0,2,0,151,-1.699282709748575,0.5
0.0,3.691721200942993,0.0,2,0,152,2.5650575824390636,0.5
0.0,4.211705207824707,0.0,2,0,153,0.30736225418001534,0.5
0.0,3.0226898193359375,0.0,2,0,154,-1.2333262009044244,0.5
1.0,2.5206875801086426,1.0,2,0,155,-0.8974338789835407,0.5
1.0,3.5177130699157715,1.0,2,0,156,0.39082255890045053,0.5
1.0,2.64668607711792,1.0,2,0,157,-0.09192254054296402,0.5
0.0,2.497687816619873,0.0,2,0,158,-1.5334943881538148,0.5
0.0,1.9706923961639404,0.0,2,0,159,-0.8511706089950675,0.5
1.0,3.393707275390625,0.0,2,0,160,-0.39936675505983726,0.5
1.0,2.259690999984741,1.0,2,0,161,-1.3231545069270072,0.5
1.0,3.5077126026153564,1.0,2,0,162,0.2610136784450569,0.5
1.0,3.396707534790039,0.0,2,0,163,0.731282569067649,0.5
0.0,4.075715065002441,0.0,2,0,164,-0.9307405098855911,0.5
1.0,3.7667245864868164,1.0,2,0,165,1.69491728835737,0.5
0.0,2.1036925315856934,0.0,2,0,166,-2.0341923930570966,0.5
1.0,2.775684356689453,1.0,2,0,167,0.46628728077761095,0.5
1.0,3.9447245597839355,0.0,2,0,168,0.44137626985098455,0.5
0.0,3.956723690032959,0.0,2,0,169,0.38840833711657163,0.5
1.0,3.8097267150878906,0.0,2,0,170,1.2236866307772514,0.5
0.0,4.0957136154174805,0.0,2,0,171,1.8731530080191428,0.5
1.0,2.8136837482452393,1.0,2,0,172,0.12555684059593233,0.5
1.0,2.6636857986450195,0.0,2,0,173,-0.7996796996826666,0.5
1.0,3.2116987705230713,1.0,2,0,174,1.371550799918808,0.5
0.0,4.139710426330566,0.0,2,0,175,1.5608061168437448,0.5
1.0,3.611717462539673,1.0,2,0,176,-1.573036862747153,0.5
1.0,3.2356998920440674,1.0,2,0,177,0.5180212191183342,0.5
1.0,3.143695592880249,1.0,2,0,178,-1.070942347826854,0.5
1.0,2.402688980102539,1.0,2,0,179,-0.5716218284648248,0.5
1.0,3.081692695617676,1.0,2,0,180,-0.06373734806969766,0.5
1.0,2.50168776512146,1.0,2,0,181,-0.43398760812327886,0.5
1.0,2.9836881160736084,0.0,2,0,182,0.8926678219676281,0.5
0.0,3.9697227478027344,0.0,2,0,183,1.8512931766018559,0.5
1.0,3.851728677749634,1.0,2,0,184,1.2902306819146707,0.5
1.0,4.215704917907715,1.0,2,0,185,-0.08367546374632717,0.5
1.0,2.7096850872039795,1.0,2,0,186,-1.7678538553395797,0.5
1.0,2.402688980102539,1.0,2,0,187,-0.9775628660037339,0.5
1.0,2.219691514968872,1.0,2,0,188,-0.9805263605477526,0.5
1.0,2.884683609008789,1.0,2,0,189,0.6844294889241568,0.5
0.0,3.8337278366088867,0.0,2,0,190,0.4979181165921543,0.5
1.0,3.2146987915039062,1.0,2,0,191,-0.9277927701063596,0.5
0.0,2.9956886768341064,0.0,2,0,192,1.5600000718996831,0.5
1.0,2.2936904430389404,1.0,2,0,193,-1.4635604839060894,0.5
1.0,3.5007123947143555,1.0,2,0,194,1.0584426997678154,0.5
0.0,2.173691987991333,0.0,2,0,195,-0.27782140907785813,0.5
0.0,2.2986903190612793,1.0,2,0,196,-0.6807221705217186,0.5
0.0,3.116694450378418,0.0,2,0,197,0.01491716703664922,0.5
1.0,4.130711078643799,1.0,2,0,198,-0.08507188430831268,0.5
1.0,3.3197038173675537,1.0,2,0,199,1.0125953889657922,0.5
1.0,2.556687116622925,1.0,2,0,200,0.7091131390628234,0.5
1.0,2.5196876525878906,0.0,2,0,201,-0.16686635642101566,0.5
1.0,3.8047266006469727,1.0,2,0,202,0.16093052913905742,0.5
1.0,3.7647247314453125,1.0,2,0,203,-0.5101662836575145,0.5
0.0,4.450687885284424,0.0,2,0,204,-0.34308242333094896,0.5
1.0,3.628718376159668,1.0,2,0,205,0.39723732159238145,0.5
1.0,3.5217132568359375,0.0,2,0,206,-0.00349916870210807,0.5
0.0,2.463688373565674,1.0,2,0,207,-0.3403017455238037,0.5
0.0,2.1046926975250244,0.0,2,0,208,0.33232095379410875,0.5
0.0,4.282700061798096,0.0,2,0,209,1.3631020593046819,0.5
1.0,3.5897164344787598,1.0,2,0,210,-0.599708182365883,0.5
1.0,3.446709632873535,1.0,2,0,211,0.7229566063453369,0.5
1.0,4.357694625854492,1.0,2,0,212,1.7282974938448232,0.5
1.0,3.8837289810180664,1.0,2,0,213,0.8783274866512585,0.5
1.0,3.7167224884033203,1.0,2,0,214,0.45292411533453103,0.5
1.0,2.592686653137207,0.0,2,0,215,-1.0602285497684707,0.5
1.0,3.0656919479370117,1.0,2,0,216,-1.589780017292247,0.5
1.0,4.046717166900635,1.0,2,0,217,-0.07443855197677605,0.5
0.0,3.7257227897644043,0.0,2,0,218,0.699121183269361,0.5
1.0,2.497687816619873,0.0,2,0,219,-0.286964782973739,0.5
1.0,3.2487006187438965,1.0,2,0,220,0.5439652999911785,0.5
1.0,3.5277135372161865,1.0,2,0,221,1.1398229713059522,0.5
1.0,3.436709403991699,1.0,2,0,222,-0.06395954577728147,0.5
1.0,3.5227131843566895,1.0,2,0,223,0.10570694159924475,0.5
1.0,3.392707347869873,1.0,2,0,224,0.6524951023902034,0.5
1.0,3.2737016677856445,1.0,2,0,225,0.6274826185264388,0.5
1.0,3.2887024879455566,1.0,2,0,226,0.37761157330201234,0.5
1.0,3.1976981163024902,1.0,2,0,227,1.560562611746469,0.5
1.0,3.0196897983551025,1.0,2,0,228,-0.8892509274924018,0.5
1.0,2.9566869735717773,1.0,2,0,229,-1.5257595794234502,0.5
1.0,3.2557008266448975,1.0,2,0,230,1.4397712216683247,0.5
1.0,3.8387279510498047,1.0,2,0,231,0.6976003621358097,0.5
0.0,3.9237260818481445,0.0,2,0,232,0.5983418493334679,0.5
1.0,4.001720428466797,1.0,2,0,233,0.955576106707134,0.5
1.0,2.791684150695801,1.0,2,0,234,-0.5916570150942431,0.5
1.0,2.6216862201690674,1.0,2,0,235,-0.7939308605074522,0.5
1.0,2.8026838302612305,0.0,2,0,236,-0.32720297557062333,0.5
1.0,3.7607245445251465,1.0,2,0,237,-1.1601845182164587,0.5
1.0,2.9476864337921143,1.0,2,0,238,0.30911192128914,0.5
1.0,4.042717456817627,1.0,2,0,239,0.9190044980801727,0.5
0.0,2.076692581176758,0.0,2,0,240,-1.651903330433972,0.5
1.0,3.1886978149414062,1.0,2,0,241,0.4397626098912221,0.5
1.0,3.182697296142578,1.0,2,0,242,0.42854790846424856,0.5
1.0,2.785684108734131,1.0,2,0,243,0.005413968175614418,0.5
0.0,3.173696994781494,1.0,2,0,244,-0.02951813969946765,0.5
1.0,3.0516912937164307,1.0,2,0,245,0.856244834883304,0.5
0.0,3.7837255001068115,1.0,2,0,246,1.825771786840089,0.5
0.0,4.367693901062012,1.0,2,0,247,0.7183586176209957,0.5
1.0,3.4447097778320312,1.0,2,0,248,-0.027628274990714144,0.5
0.0,3.8337278366088867,0.0,2,0,249,1.4134490323117914,0.5
0.0,2.25869083404541,0.0,2,0,250,-0.6993405657026255,0.5
1.0,3.183697462081909,0.0,2,0,251,0.8020506408402076,0.5
0.0,3.0826926231384277,0.0,2,0,252,-0.4935699395137058,0.5
1.0,3.4597103595733643,1.0,2,0,253,2.4300559795657533,0.5
0.0,3.369706153869629,0.0,2,0,254,0.9475810249218113,0.5
1.0,3.9427247047424316,1.0,2,0,255,1.3154139197894723,0.5
1.0,3.9727225303649902,1.0,2,0,256,0.5638944040150328,0.5
1.0,3.641718864440918,0.0,2,0,257,-0.3654370868254612,0.5
0.0,3.0356905460357666,0.0,2,0,258,0.5144034376857293,0.5
0.0,2.274690628051758,1.0,2,0,259,-1.2167091013685394,0.5
0.0,2.2906904220581055,0.0,2,0,260,1.2073874977751238,0.5
0.0,4.241703033447266,1.0,2,0,261,0.32080688065917257,0.5
1.0,3.382706642150879,1.0,2,0,262,0.4331874873744959,0.5
1.0,4.157709121704102,1.0,2,0,263,1.7027401652940524,0.5
0.0,2.7176849842071533,0.0,2,0,264,-0.9140331895703988,0.5
1.0,3.9087271690368652,1.0,2,0,265,0.23821821130535994,0.5
1.0,3.368706226348877,1.0,2,0,266,0.09169568022981515,0.5
1.0,2.401689052581787,0.0,2,0,267,-1.6615784722064355,0.5
0.0,2.883683443069458,1.0,2,0,268,0.16130921510947813,0.5
0.0,2.6576857566833496,1.0,2,0,269,0.39468859266475814,0.5
0.0,2.1466922760009766,0.0,2,0,270,0.39261574271607746,0.5
0.0,2.5746870040893555,0.0,2,0,271,-0.6637954912489971,0.5
0.0,1.9126923084259033,0.0,2,0,272,-3.659017553075528,0.5
1.0,4.112712383270264,1.0,2,0,273,1.6233432529214307,0.5
1.0,3.670720100402832,0.0,2,0,274,-1.5621564111066342,0.5
0.0,3.131695032119751,0.0,2,0,275,-0.03666891240447231,0.5
1.0,3.956723690032959,0.0,2,0,276,2.088189334085692,0.5
1.0,3.4717109203338623,1.0,2,0,277,0.19266594826404188,0.5
1.0,2.9756877422332764,1.0,2,0,278,-1.730841104580718,0.5
1.0,3.8107266426086426,0.0,2,0,279,0.2666667959399075,0.5
0.0,4.533681869506836,0.0,2,0,280,1.1287953051922377,0.5
1.0,2.6266860961914062,0.0,2,0,281,-2.068346840393934,0.5
1.0,4.162708759307861,1.0,2,0,282,3.0392439228073798,0.5
0.0,2.5636870861053467,0.0,2,0,283,-0.5911375495956419,0.5
0.0,3.349705219268799,0.0,2,0,284,0.3030846620496021,0.5
1.0,2.4266886711120605,1.0,2,0,285,-0.6076369760295002,0.5
1.0,4.3936920166015625,1.0,2,0,286,0.6780533948099489,0.5
0.0,3.973722457885742,1.0,2,0,287,0.4702644119191236,0.5
1.0,2.950686454772949,1.0,2,0,288,0.04606624718653357,0.5
1.0,3.0446910858154297,1.0,2,0,289,0.67369002665259,0.5
0.0,2.06569242477417,0.0,2,0,290,-1.8228150173631867,0.5
1.0,2.3726894855499268,1.0,2,0,291,-1.4564254313038032,0.5
1.0,3.706721782684326,0.0,2,0,292,2.3715511259804534,0.5
0.0,2.350689649581909,1.0,2,0,293,0.11199349445016703,0.5
0.0,3.663719892501831,0.0,2,0,294,-0.36540312985305556,0.5
0.0,2.322690010070801,0.0,2,0,295,-0.6764052320080887,0.5
1.0,3.5317137241363525,1.0,2,0,296,-0.8182010662398846,0.5
1.0,4.121711730957031,1.0,2,0,297,0.4027356363439565,0.5
1.0,2.6226863861083984,0.0,2,0,298,0.5440133590964482,0.5
0.0,3.8357279300689697,0.0,2,0,299,1.9059457749211786,0.5
1.0,4.108712673187256,1.0,2,0,300,-0.8733206528329693,0.5
0.0,2.444688558578491,0.0,2,0,301,-0.4032949184521572,0.5
1.0,3.597716808319092,1.0,2,0,302,1.1252612781842142,0.5
0.0,2.9766879081726074,0.0,2,0,303,0.3671903056304543,0.5
1.0,2.1066925525665283,1.0,2,0,304,-2.580573586072387,0.5
1.0,3.115694284439087,0.0,2,0,305,-0.15121383693263601,0.5
0.0,3.427708864212036,0.0,2,0,306,0.7504141837114953,0.5
1.0,2.6786856651306152,1.0,2,0,307,-0.5008766260749351,0.5
1.0,3.937725067138672,1.0,2,0,308,0.34640132852175465,0.5
1.0,3.15069580078125,1.0,2,0,309,-1.2585783870953622,0.5
1.0,2.8616831302642822,1.0,2,0,310,0.8084711256281644,0.5
0.0,2.7526845932006836,0.0,2,0,311,1.4708112403872848,0.5
1.0,3.0416908264160156,1.0,2,0,312,-0.24967682367954636,0.5
1.0,2.9606871604919434,1.0,2,0,313,0.521192970335259,0.5
0.0,3.59671688079834,1.0,2,0,314,-0.5493474849320898,0.5
0.0,4.053716659545898,0.0,2,0,315,0.9853370844838725,0.5
1.0,2.600686550140381,1.0,2,0,316,-2.170082473272395,0.5
1.0,4.144710063934326,1.0,2,0,317,1.2397131455619017,0.5
1.0,3.387706995010376,1.0,2,0,318,-0.642055048521768,0.5
1.0,3.7957260608673096,1.0,2,0,319,-0.6075681979819467,0.5
1.0,3.1996982097625732,1.0,2,0,320,-0.15401443311159965,0.5
0.0,3.5867161750793457,1.0,2,0,321,-0.7836866064141799,0.5
0.0,2.6676857471466064,0.0,2,0,322,2.234543933411748,0.5
0.0,3.161696434020996,0.0,2,0,323,-0.20368873474210034,0.5
1.0,2.4206888675689697,1.0,2,0,324,0.4288676487596059,0.5
1.0,3.9857215881347656,0.0,2,0,325,-0.6045383330325064,0.5
0.0,4.3946919441223145,0.0,2,0,326,1.9584994424235542,0.5
0.0,3.9237260818481445,0.0,2,0,327,-0.01916462544316579,0.5
0.0,3.874729633331299,0.0,2,0,328,-0.2596842044081951,0.5
0.0,2.3016903400421143,0.0,2,0,329,-0.39351266425488757,0.5
0.0,4.001720428466797,0.0,2,0,330,2.231682463373706,0.5
1.0,4.523682594299316,1.0,2,0,331,0.9364833362847342,0.5
1.0,2.3746893405914307,1.0,2,0,332,-0.3603116897346467,0.5
1.0,4.101713180541992,1.0,2,0,333,2.325575311196229,0.5
0.0,2.0376925468444824,0.0,2,0,334,-0.7496583321631903,0.5
1.0,3.7977261543273926,0.0,2,0,335,0.12043344653370266,0.5
0.0,3.7487239837646484,1.0,2,0,336,-0.1050914885558765,0.5
1.0,4.117712020874023,1.0,2,0,337,-1.126116785907904,0.5
1.0,3.5157129764556885,1.0,2,0,338,0.22612358647451292,0.5
1.0,3.0646920204162598,1.0,2,0,339,-0.9379528165452463,0.5
0.0,2.314690113067627,0.0,2,0,340,-1.9818697035868367,0.5
1.0,2.0876924991607666,1.0,2,0,341,-1.164835261612847,0.5
1.0,3.3207039833068848,1.0,2,0,342,0.4232556530632619,0.5
1.0,2.7566845417022705,1.0,2,0,343,-0.0675202628715803,0.5
0.0,3.958723545074463,0.0,2,0,344,0.6290598289771979,0.5
1.0,2.7936840057373047,0.0,2,0,345,-0.7846797556155408,0.5
0.0,2.603686571121216,0.0,2,0,346,1.0985969704032008,0.5
0.0,2.910684585571289,0.0,2,0,347,-1.925164304417132,0.5
0.0,3.2336997985839844,1.0,2,0,348,0.3189600286880748,0.5
1.0,3.974722385406494,1.0,2,0,349,-1.0371289329334377,0.5
0.0,2.694685459136963,1.0,2,0,350,-0.12117620212856067,0.5
1.0,4.2237043380737305,1.0,2,0,351,0.24229813649564355,0.5
1.0,3.0646920204162598,1.0,2,0,352,0.8965366748393739,0.5
0.0,4.4386887550354,0.0,2,0,353,-0.03476348070526694,0.5
0.0,3.62271785736084,0.0,2,0,354,1.2269104869112342,0.5
1.0,3.5087127685546875,1.0,2,0,355,-0.2042174434620569,0.5
1.0,2.7166850566864014,1.0,2,0,356,-1.1466994062841442,0.5
1.0,3.3077032566070557,1.0,2,0,357,0.6114981467088673,0.5
0.0,3.9017276763916016,0.0,2,0,358,0.2993142623023753,0.5
1.0,2.8016839027404785,1.0,2,0,359,-2.1312581234744368,0.5
1.0,3.635718584060669,1.0,2,0,360,0.2193001606725372,0.5
1.0,3.2467002868652344,1.0,2,0,361,1.2522304601736975,0.5
1.0,3.439709424972534,0.0,2,0,362,0.2684508932943109,0.5
0.0,2.598686695098877,0.0,2,0,363,0.24444992380278965,0.5
0.0,3.9907212257385254,0.0,2,0,364,1.1056642503210394,0.5
1.0,2.0266923904418945,1.0,2,0,365,-2.749112458254236,0.5
0.0,3.0086894035339355,0.0,2,0,366,-0.44668119900536657,0.5
0.0,3.2847023010253906,0.0,2,0,367,-0.7758834470421648,0.5
1.0,4.042717456817627,1.0,2,0,368,-0.32226434188799313,0.5
1.0,3.3097033500671387,1.0,2,0,369,0.4389328866742248,0.5
1.0,3.8177270889282227,1.0,2,0,370,2.011073446188982,0.5
1.0,4.353694915771484,1.0,2,0,371,0.41620802093988674,0.5
1.0,2.887683629989624,1.0,2,0,372,0.07551356084400795,0.5
1.0,3.108694076538086,1.0,2,0,373,-0.5166372237108329,0.5
1.0,2.537687301635742,1.0,2,0,374,-0.23095424522418473,0.5
0.0,2.1076927185058594,0.0,2,0,375,-1.6544454993065159,0.5
1.0,3.9297256469726562,1.0,2,0,376,0.18989880613051302,0.5
1.0,3.2717015743255615,1.0,2,0,377,-0.006384717506067501,0.5
1.0,2.7096850872039795,0.0,2,0,378,1.5941101913316034,0.5
1.0,3.0656919479370117,1.0,2,0,379,1.1909511311989034,0.5
1.0,2.5776867866516113,1.0,2,0,380,0.1665578885647762,0.5
1.0,3.1996982097625732,1.0,2,0,381,-0.05986352878017528,0.5
1.0,2.218691349029541,1.0,2,0,382,-0.33993187257887786,0.5
1.0,3.394707202911377,0.0,2,0,383,-0.2811624554797295,0.5
0.0,1.990692377090454,1.0,2,0,384,-2.3596607601233193,0.5
0.0,2.9946885108947754,1.0,2,0,385,-0.6370871510618245,0.5
0.0,3.9837217330932617,0.0,2,0,386,0.404273908924958,0.5
0.0,3.3267040252685547,0.0,2,0,387,-0.10243765443283925,0.5
1.0,3.5857162475585938,1.0,2,0,388,-1.2968775365394796,0.5
1.0,3.336704730987549,1.0,2,0,389,-0.5281093888875348,0.5
0.0,2.171692132949829,1.0,2,0,390,0.17172351213076834,0.5
0.0,2.544687271118164,0.0,2,0,391,-0.6566468828286824,0.5
1.0,3.684720993041992,0.0,2,0,392,-0.02346747907297334,0.5
1.0,2.44968843460083,0.0,2,0,393,-1.774412395742027,0.5
0.0,2.63468599319458,0.0,2,0,394,0.46601139262504937,0.5
1.0,2.91168475151062,1.0,2,0,395,-0.28979827023180965,0.5
0.0,3.0756924152374268,1.0,2,0,396,-0.0427185245188041,0.5
0.0,2.2816905975341797,0.0,2,0,397,-0.7222906947855127,0.5
0.0,3.348705291748047,0.0,2,0,398,1.5337375773605046,0.5
1.0,3.38370680809021,1.0,2,0,399,1.84002316921294,0.5
1.0,2.907684564590454,1.0,2,0,400,-0.49234977827699083,0.5
1.0,3.139695405960083,1.0,2,0,401,0.597389969169507,0.5
1.0,4.399691581726074,1.0,2,0,402,-0.22053465614330872,0.5
0.0,4.18770694732666,0.0,2,0,403,0.4094442705399023,0.5
1.0,3.5427141189575195,1.0,2,0,404,0.35349126023847327,0.5
1.0,2.89168381690979,0.0,2,0,405,0.3856819788967836,0.5
0.0,2.2006916999816895,0.0,2,0,406,-0.6450348718914546,0.5
1.0,3.7597243785858154,1.0,2,0,407,0.5977788348287539,0.5
0.0,4.316697597503662,1.0,2,0,408,0.1757469446059414,0.5
0.0,3.9257259368896484,0.0,2,0,409,-1.283182915786173,0.5
1.0,2.921685218811035,1.0,2,0,410,-1.3099563550906457,0.5
1.0,3.9647231101989746,1.0,2,0,411,1.111355395847918,0.5
1.0,3.2336997985839844,1.0,2,0,412,0.17428207578555743,0.5
1.0,3.7997262477874756,0.0,2,0,413,-0.5934090743440721,0.5
0.0,2.585686683654785,0.0,2,0,414,-0.8665664332021469,0.5
1.0,4.554680347442627,0.0,2,0,415,2.3675618823203375,0.5
0.0,4.05971622467041,0.0,2,0,416,-0.13363483302319518,0.5
0.0,3.652719497680664,0.0,2,0,417,2.4797766372832726,0.5
0.0,2.4386887550354004,0.0,2,0,418,-2.7381967791773203,0.5
0.0,2.4556884765625,0.0,2,0,419,-0.612174321004041,0.5
0.0,3.9047274589538574,0.0,2,0,420,-0.4961856584893781,0.5
0.0,4.454687595367432,0.0,2,0,421,1.0528977763612317,0.5
0.0,2.2916905879974365,1.0,2,0,422,-0.1923121508462455,0.5
0.0,3.7417235374450684,1.0,2,0,423,0.4607023651185981,0.5
0.0,2.7666845321655273,1.0,2,0,424,0.6044916046431764,0.5
0.0,2.868683099746704,0.0,2,0,425,-0.8954633542830064,0.5
0.0,2.834683418273926,0.0,2,0,426,-0.711348148269239,0.5
0.0,3.7717249393463135,0.0,2,0,427,0.5761356859581341,0.5
0.0,2.6536858081817627,1.0,2,0,428,-0.016335924871594933,0.5
0.0,3.868729591369629,1.0,2,0,429,0.33388869859497056,0.5
0.0,2.8626832962036133,0.0,2,0,430,-0.36896948127610685,0.5
1.0,4.2667012214660645,1.0,2,0,431,0.48466028630144076,0.5
0.0,2.06569242477417,0.0,2,0,432,-2.171462685972824,0.5
0.0,3.4807114601135254,0.0,2,0,433,-1.0594535398820566,0.5
1.0,2.9786877632141113,1.0,2,0,434,0.18642030347188507,0.5
1.0,3.5507144927978516,0.0,2,0,435,-0.3363575254267704,0.5
1.0,3.7987260818481445,1.0,2,0,436,1.4275343845807582,0.5
1.0,3.361705780029297,1.0,2,0,437,0.565767224280085,0.5
1.0,4.131711006164551,1.0,2,0,438,0.5894753165128069,0.5
0.0,2.730684757232666,0.0,2,0,439,1.4212385629240667,0.5
1.0,2.5206875801086426,0.0,2,0,440,-0.25792344508584786,0.5
1.0,4.604676723480225,1.0,2,0,441,1.68458622131602,0.5
1.0,2.64068603515625,1.0,2,0,442,-1.4386347979738998,0.5
1.0,3.9487242698669434,1.0,2,0,443,0.7875747038164947,0.5
1.0,2.9746875762939453,1.0,2,0,444,-1.400112221862984,0.5
0.0,2.1146926879882812,0.0,2,0,445,0.012125460512668489,0.5
1.0,3.360705852508545,0.0,2,0,446,1.5123665302730809,0.5
0.0,2.50768780708313,1.0,2,0,447,-2.2304593575276144,0.5
0.0,4.2647013664245605,0.0,2,0,448,1.4187588257384038,0.5
1.0,3.979722023010254,1.0,2,0,449,-0.25461143674274644,0.5
1.0,2.6106863021850586,1.0,2,0,450,-1.3538738393446401,0.5
1.0,4.469686508178711,1.0,2,0,451,1.3613545959174715,0.5
0.0,4.199706077575684,0.0,2,0,452,0.32117735586406726,0.5
1.0,3.119694471359253,0.0,2,0,453,1.3176541787007687,0.5
1.0,3.8057265281677246,1.0,2,0,454,0.007790093477512309,0.5
1.0,2.7086851596832275,1.0,2,0,455,-0.3388489471344039,0.5
1.0,2.942686080932617,1.0,2,0,456,-1.0496708403097512,0.5
1.0,3.5147128105163574,1.0,2,0,457,-0.03432192594298557,0.5
1.0,3.0756924152374268,1.0,2,0,458,-0.28839791982486,0.5
1.0,2.7956840991973877,1.0,2,0,459,1.421965377025021,0.5
1.0,4.3286967277526855,0.0,2,0,460,-0.33339329568883647,0.5
0.0,3.9487242698669434,0.0,2,0,461,0.9941962688402994,0.5
0.0,3.9647231101989746,1.0,2,0,462,0.7677852358259739,0.5
0.0,2.184691905975342,0.0,2,0,463,-1.251289118512266,0.5
0.0,2.3896892070770264,1.0,2,0,464,-0.388458637707192,0.5
0.0,3.094693183898926,1.0,2,0,465,-0.6583530760467181,0.5
0.0,2.7106852531433105,0.0,2,0,466,1.766068665282453,0.5
1.0,2.684685468673706,1.0,2,0,467,-1.411172346777635,0.5
1.0,3.7727251052856445,0.0,2,0,468,-0.37500802350738055,0.5
0.0,2.3406898975372314,0.0,2,0,469,1.321800720881597,0.5
0.0,2.1556923389434814,0.0,2,0,470,-0.11383438137109524,0.5
0.0,2.218691349029541,0.0,2,0,471,0.23626947276006868,0.5
0.0,2.115692615509033,0.0,2,0,472,-0.3244213958853575,0.5
1.0,3.3257040977478027,0.0,2,0,473,-1.1700979592056666,0.5
1.0,3.8197271823883057,1.0,2,0,474,0.9639550223586215,0.5
1.0,2.4246888160705566,1.0,2,0,475,-1.6425032491447265,0.5
0.0,2.722684860229492,0.0,2,0,476,-0.17889754575388678,0.5
1.0,2.4236888885498047,1.0,2,0,477,0.41500005655550726,0.5
1.0,3.7557241916656494,1.0,2,0,478,0.8715426241588409,0.5
0.0,3.4757111072540283,0.0,2,0,479,0.12963215036425507,0.5
1.0,2.2446911334991455,1.0,2,0,480,-1.1015889876339668,0.5
1.0,2.776684284210205,1.0,2,0,481,-0.49875674260588065,0.5
0.0,4.066715717315674,0.0,2,0,482,0.3058621823865212,0.5
1.0,2.7116851806640625,0.0,2,0,483,1.3136004649716568,0.5
0.0,2.556687116622925,0.0,2,0,484,0.27219417159047904,0.5
1.0,4.384692668914795,0.0,2,0,485,1.778549556798157,0.5
1.0,4.021718978881836,0.0,2,0,486,0.39134029626294053,0.5
0.0,3.0506911277770996,1.0,2,0,487,2.3309681106710003,0.5
0.0,3.5577149391174316,0.0,2,0,488,-0.8905718390923288,0.5
1.0,3.096693515777588,0.0,2,0,489,-1.564149636044679,0.5
0.0,2.133692502975464,0.0,2,0,490,0.526324504379502,0.5
0.0,4.104712963104248,0.0,2,0,491,-0.2547360808925827,0.5
0.0,2.9676873683929443,0.0,2,0,492,0.5240228457758243,0.5
0.0,2.279690742492676,0.0,2,0,493,0.1857847746908542,0.5
0.0,4.227704048156738,1.0,2,0,494,1.487355227106838,0.5
0.0,2.460688352584839,0.0,2,0,495,0.976179631055576,0.5
0.0,3.592716693878174,0.0,2,0,496,0.7008405238380976,0.5
1.0,3.580716133117676,0.0,2,0,497,0.7696280420089704,0.5
0.0,4.23370361328125,0.0,2,0,498,0.4462138159706631,0.5
0.0,3.8227272033691406,0.0,2,0,499,2.235550053252563,0.5
0.0,4.316697597503662,0.0,2,0,500,0.695914627425354,0.5
1.0,4.155955791473389,1.0,3,0,1,0.640913602059007,0.5
0.0,3.4919610023498535,0.0,3,0,2,0.5344701196572806,0.5
1.0,4.518929481506348,1.0,3,0,3,1.7958525702186718,0.5
1.0,2.809931755065918,1.0,3,0,4,0.45239341487747586,0.5
1.0,2.664933443069458,0.0,3,0,5,1.1139572379900071,0.5
0.0,3.055940628051758,0.0,3,0,6,-0.05732633600790383,0.5
0.0,1.9559404850006104,1.0,3,0,7,-0.36090592062014465,0.5
0.0,2.189939498901367,1.0,3,0,8,-1.2106916267882177,0.5
0.0,2.095940589904785,0.0,3,0,9,0.6738176366348879,0.5
1.0,2.722932815551758,0.0,3,0,10,-0.5960034991499478,0.5
1.0,3.2919516563415527,1.0,3,0,11,-1.8656141135318718,0.5
0.0,3.153945207595825,0.0,3,0,12,-0.7933482540411328,0.5
1.0,4.092960357666016,0.0,3,0,13,-0.26878322938150057,0.5
0.0,3.1719460487365723,0.0,3,0,14,-0.389056797447724,0.5
1.0,3.8989744186401367,1.0,3,0,15,0.9109135804886074,0.5
1.0,2.9769368171691895,1.0,3,0,16,-1.3502591413819178,0.5
1.0,3.3049521446228027,0.0,3,0,17,1.5999536195135091,0.5
1.0,3.390956401824951,1.0,3,0,18,-0.42202499973099594,0.5
1.0,3.637967824935913,0.0,3,0,19,-0.04890333716225152,0.5
0.0,3.7859747409820557,0.0,3,0,20,-0.5410831236580024,0.5
0.0,4.2439494132995605,0.0,3,0,21,1.5409260344091036,0.5
0.0,3.569964647293091,0.0,3,0,22,0.47781589657980966,0.5
1.0,3.107943058013916,1.0,3,0,23,-0.4357076816471101,0.5
1.0,4.191953182220459,1.0,3,0,24,-0.3800401135378572,0.5
1.0,2.7829320430755615,1.0,3,0,25,-0.49413319180055126,0.5
1.0,3.7679738998413086,1.0,3,0,26,1.3594451466862616,0.5
0.0,2.519935369491577,0.0,3,0,27,-1.0567994772956408,0.5
1.0,3.5019614696502686,1.0,3,0,28,-0.09413786269144155,0.5
1.0,2.9649362564086914,1.0,3,0,29,0.7391560888538186,0.5
1.0,4.2439494132995605,1.0,3,0,30,2.999577717928463,0.5
1.0,3.055940628051758,1.0,3,0,31,1.12709591644418,0.5
0.0,2.3649373054504395,0.0,3,0,32,-0.7154594128170975,0.5
1.0,3.573964834213257,1.0,3,0,33,0.029006260463904348,0.5
1.0,3.381955862045288,0.0,3,0,34,0.7352529543730161,0.5
1.0,3.3049521446228027,1.0,3,0,35,0.17089848982966174,0.5
1.0,3.2829513549804688,1.0,3,0,36,-0.11738772887254659,0.5
1.0,3.1839466094970703,1.0,3,0,37,-0.02227898862256972,0.5
1.0,4.252948760986328,1.0,3,0,38,0.33907784624820203,0.5
0.0,3.998967170715332,0.0,3,0,39,0.9357740435983246,0.5
1.0,2.815931558609009,0.0,3,0,40,-0.32387821617012325,0.5
1.0,3.671969413757324,0.0,3,0,41,-1.829811376033814,0.5
0.0,3.8859753608703613,0.0,3,0,42,0.404428082277828,0.5
1.0,4.218951225280762,1.0,3,0,43,1.3727250433181257,0.5
0.0,2.0199406147003174,1.0,3,0,44,-0.1544299570490982,0.5
1.0,2.9269347190856934,0.0,3,0,45,-0.5864973117275167,0.5
0.0,4.288946151733398,0.0,3,0,46,-0.5926543012510554,0.5
0.0,2.570934772491455,0.0,3,0,47,-0.11161387366157571,0.5
1.0,3.1509451866149902,1.0,3,0,48,0.1066057976350712,0.5
1.0,2.9059336185455322,1.0,3,0,49,-0.5702787587670161,0.5
0.0,1.8929404020309448,0.0,3,0,50,-3.45025096260203,0.5
1.0,4.364940643310547,0.0,3,0,51,0.4133450140238755,0.5
1.0,2.4149367809295654,1.0,3,0,52,-0.4003447479875947,0.5
1.0,3.7349724769592285,1.0,3,0,53,0.6490553932204297,0.5
1.0,3.370955467224121,1.0,3,0,54,-0.12092177830987268,0.5
1.0,4.595923900604248,0.0,3,0,55,-0.11174633417083435,0.5
0.0,3.917973041534424,0.0,3,0,56,1.4329286900376526,0.5
0.0,3.117943525314331,0.0,3,0,57,-1.0438187090596107,0.5
0.0,3.5359630584716797,1.0,3,0,58,0.6865924691238818,0.5
0.0,3.391956329345703,0.0,3,0,59,0.29404236193796446,0.5
0.0,2.9079337120056152,0.0,3,0,60,1.2821131808652972,0.5
1.0,3.8609771728515625,1.0,3,0,61,1.3904822788152398,0.5
1.0,3.2969517707824707,0.0,3,0,62,0.177390575919914,0.5
0.0,3.888975143432617,0.0,3,0,63,-0.24771715902891284,0.5
0.0,2.9389352798461914,0.0,3,0,64,0.1637127564759485,0.5
1.0,4.333942890167236,0.0,3,0,65,2.1409898447556355,0.5
0.0,3.576964855194092,0.0,3,0,66,1.2191113798966717,0.5
1.0,4.204952239990234,1.0,3,0,67,0.13381303181650028,0.5
0.0,2.4109368324279785,0.0,3,0,68,0.17008933757616992,0.5
0.0,3.7829747200012207,1.0,3,0,69,0.9977209094883263,0.5
1.0,2.329937696456909,0.0,3,0,70,-1.5215319112589814,0.5
0.0,4.354941368103027,1.0,3,0,71,1.1253898369597894,0.5
0.0,3.072941303253174,0.0,3,0,72,-0.7903194207119494,0.5
1.0,3.615966796875,1.0,3,0,73,-0.23654565614781245,0.5
1.0,3.348954200744629,1.0,3,0,74,-0.7968329899085366,0.5
0.0,4.413937091827393,0.0,3,0,75,0.4315192190470993,0.5
1.0,2.3189380168914795,1.0,3,0,76,-0.7265745305376757,0.5
1.0,3.9459710121154785,1.0,3,0,77,0.9214405980266849,0.5
0.0,1.9509403705596924,0.0,3,0,78,-0.7901650056568218,0.5
1.0,2.423936605453491,1.0,3,0,79,-1.9893736327850062,0.5
1.0,3.0069384574890137,1.0,3,0,80,0.9434222021479187,0.5
0.0,3.2159481048583984,0.0,3,0,81,0.3752331659149799,0.5
1.0,4.0099663734436035,1.0,3,0,82,0.8967360231783872,0.5
1.0,3.2349491119384766,0.0,3,0,83,-0.24061209345418466,0.5
1.0,3.084941864013672,1.0,3,0,84,0.16880419873787658,0.5
0.0,2.7349326610565186,0.0,3,0,85,0.8121833516396605,0.5
1.0,4.290946006774902,0.0,3,0,86,-0.04150510744440781,0.5
0.0,2.6849331855773926,0.0,3,0,87,-0.5365641665866302,0.5
0.0,2.856931209564209,1.0,3,0,88,0.0170655526656595,0.5
1.0,4.600923538208008,1.0,3,0,89,0.4807467611931802,0.5
1.0,2.61393404006958,1.0,3,0,90,-0.6154913978299748,0.5
0.0,2.6789333820343018,0.0,3,0,91,-0.6143831211930229,0.5
1.0,3.1619455814361572,1.0,3,0,92,0.2872848297633962,0.5
1.0,2.9109339714050293,1.0,3,0,93,-0.61172920148559,0.5
1.0,3.353954553604126,1.0,3,0,94,0.11280803228845068,0.5
1.0,3.976968765258789,1.0,3,0,95,-0.3176481371809302,0.5
1.0,2.875932216644287,1.0,3,0,96,0.29438119634103954,0.5
0.0,3.4809603691101074,1.0,3,0,97,0.5280977679084541,0.5
1.0,3.7899749279022217,1.0,3,0,98,0.6068944956764939,0.5
0.0,3.658968925476074,1.0,3,0,99,2.3478888062211505,0.5
0.0,3.613966703414917,0.0,3,0,100,0.42003543124374443,0.5
1.0,4.239949703216553,1.0,3,0,101,0.5857040741662691,0.5
0.0,4.136957168579102,0.0,3,0,102,1.4379268138657353,0.5
1.0,3.4409584999084473,1.0,3,0,103,-1.2669964649084768,0.5
1.0,2.530935287475586,1.0,3,0,104,-0.5593913409984328,0.5
0.0,3.388956069946289,0.0,3,0,105,0.9176199437083004,0.5
1.0,2.4559361934661865,0.0,3,0,106,-0.4725482446177789,0.5
0.0,3.8559775352478027,0.0,3,0,107,0.560176012154308,0.5
0.0,4.064962387084961,0.0,3,0,108,0.9064210887621661,0.5
0.0,2.869931936264038,0.0,3,0,109,-0.05891634041822266,0.5
0.0,2.7739319801330566,0.0,3,0,110,-1.4192032079002699,0.5
1.0,3.7569732666015625,1.0,3,0,111,-0.5908237710173933,0.5
1.0,3.5119619369506836,1.0,3,0,112,0.577553840930513,0.5
0.0,3.660968780517578,1.0,3,0,113,-1.3430315067663245,0.5
0.0,1.9919404983520508,0.0,3,0,114,-3.110328929392908,0.5
0.0,4.022965431213379,0.0,3,0,115,0.8438113501538496,0.5
0.0,3.7279720306396484,0.0,3,0,116,-0.5207206031665793,0.5
1.0,2.193939447402954,0.0,3,0,117,-1.8486954643475684,0.5
0.0,3.9249725341796875,0.0,3,0,118,1.7509175234272236,0.5
1.0,4.51492977142334,1.0,3,0,119,0.10910156319562322,0.5
1.0,3.5329627990722656,1.0,3,0,120,-1.1670747775040666,0.5
1.0,3.0089383125305176,1.0,3,0,121,1.3554203261522597,0.5
1.0,4.38193941116333,1.0,3,0,122,1.1155926125428204,0.5
1.0,3.4219577312469482,1.0,3,0,123,0.2818475419114187,0.5
1.0,2.844931125640869,1.0,3,0,124,-1.1240620503708278,0.5
0.0,3.343954086303711,0.0,3,0,125,1.2832021618282747,0.5
1.0,4.361940860748291,1.0,3,0,126,1.888384302606716,0.5
1.0,3.7109713554382324,1.0,3,0,127,0.29989112148899155,0.5
1.0,2.4599361419677734,1.0,3,0,128,0.38341978909311303,0.5
1.0,3.5059616565704346,1.0,3,0,129,-0.6545720567275977,0.5
0.0,2.2229392528533936,0.0,3,0,130,-1.6949797712930168,0.5
0.0,2.582934617996216,0.0,3,0,131,-0.9109620933422544,0.5
1.0,3.6969704627990723,0.0,3,0,132,1.4951171559065708,0.5
1.0,4.056962966918945,1.0,3,0,133,0.12342227235119661,0.5
1.0,3.4909610748291016,0.0,3,0,134,-0.18444948477873327,0.5
1.0,2.4459362030029297,1.0,3,0,135,0.5764233150365788,0.5
1.0,2.6869332790374756,1.0,3,0,136,-1.7601980526018166,0.5
0.0,3.626967430114746,0.0,3,0,137,-0.5362465490895206,0.5
1.0,4.480932235717773,1.0,3,0,138,1.5549748592388664,0.5
1.0,2.9519357681274414,1.0,3,0,139,0.45547804029225,0.5
0.0,2.2239391803741455,0.0,3,0,140,-2.568677450074103,0.5
1.0,4.3509416580200195,1.0,3,0,141,1.995650134680625,0.5
1.0,4.1809539794921875,1.0,3,0,142,0.8673290495580837,0.5
1.0,4.655919551849365,1.0,3,0,143,0.9703517563848562,0.5
1.0,2.4159367084503174,1.0,3,0,144,-2.07793308775317,0.5
1.0,3.626967430114746,1.0,3,0,145,-0.618249799108957,0.5
1.0,2.672933340072632,1.0,3,0,146,1.6730282328486088,0.5
1.0,3.1769461631774902,1.0,3,0,147,-1.0528225441998302,0.5
1.0,3.7159714698791504,1.0,3,0,148,-0.011672706848011579,0.5
0.0,3.646968364715576,0.0,3,0,149,1.5261511709377542,0.5
1.0,2.421936511993408,0.0,3,0,150,0.6173694975846324,0.5
1.0,3.640967845916748,1.0,3,0,151,-1.7678552882354484,0.5
1.0,2.653933525085449,1.0,3,0,152,-0.6083342265065621,0.5
1.0,2.9549360275268555,0.0,3,0,153,-1.574324663924316,0.5
1.0,3.9869680404663086,1.0,3,0,154,-0.5084490832940937,0.5
1.0,3.336953639984131,1.0,3,0,155,0.5058926116871807,0.5
1.0,3.2569499015808105,1.0,3,0,156,-0.9642466027187319,0.5
1.0,3.4069571495056152,1.0,3,0,157,0.011952327312068542,0.5
1.0,3.1679458618164062,0.0,3,0,158,0.2885937784403995,0.5
0.0,3.108942985534668,1.0,3,0,159,1.7217326966158293,0.5
0.0,2.432936429977417,0.0,3,0,160,0.46407685451419534,0.5
1.0,4.21795129776001,1.0,3,0,161,1.6926432567881011,0.5
1.0,2.148940086364746,1.0,3,0,162,-0.9661502859880294,0.5
1.0,2.566934823989868,1.0,3,0,163,0.25982179741410316,0.5
0.0,2.5929343700408936,0.0,3,0,164,0.5004273776650137,0.5
1.0,4.102959632873535,1.0,3,0,165,-0.02818735217378125,0.5
1.0,2.7299327850341797,1.0,3,0,166,-0.45682252215023683,0.5
1.0,4.305944919586182,1.0,3,0,167,0.5675179661321201,0.5
1.0,4.766911506652832,1.0,3,0,168,1.2135433226612278,0.5
0.0,4.569925785064697,0.0,3,0,169,0.37193538027730233,0.5
0.0,3.4649596214294434,1.0,3,0,170,-1.1565139829824778,0.5
0.0,2.721932888031006,0.0,3,0,171,-0.5012159107246539,0.5
1.0,3.054940700531006,1.0,3,0,172,0.8407555653794956,0.5
0.0,2.199939489364624,0.0,3,0,173,-0.3456000878714508,0.5
1.0,2.630934000015259,1.0,3,0,174,-0.33118780141666815,0.5
1.0,3.7839746475219727,0.0,3,0,175,1.4033512710564884,0.5
1.0,3.829976797103882,1.0,3,0,176,-1.1640230645869893,0.5
1.0,4.03396463394165,1.0,3,0,177,0.4299725911445919,0.5
0.0,3.7489728927612305,1.0,3,0,178,1.9111588434558138,0.5
0.0,4.7149152755737305,0.0,3,0,179,0.7369948330938034,0.5
1.0,3.1889467239379883,1.0,3,0,180,0.0024955550174328247,0.5
1.0,3.6919703483581543,0.0,3,0,181,1.0442464330116368,0.5
0.0,2.09894061088562,0.0,3,0,182,-1.8488158047863803,0.5
1.0,3.839977264404297,0.0,3,0,183,0.2407035958597581,0.5
1.0,2.9029335975646973,1.0,3,0,184,-0.32708828806745893,0.5
0.0,2.290938377380371,0.0,3,0,185,0.5596826677887043,0.5
1.0,4.039964199066162,1.0,3,0,186,1.3960068527533176,0.5
1.0,3.2539498805999756,1.0,3,0,187,0.29398288192361327,0.5
1.0,2.4049367904663086,1.0,3,0,188,0.5309217776458692,0.5
1.0,2.6819334030151367,1.0,3,0,189,0.2648464166963928,0.5
0.0,2.886932849884033,1.0,3,0,190,0.7674362584745745,0.5
1.0,3.630967617034912,1.0,3,0,191,-1.1745535601441472,0.5
0.0,2.432936429977417,0.0,3,0,192,-0.7876057893921857,0.5
1.0,4.027965068817139,1.0,3,0,193,1.0207590613969295,0.5
1.0,3.8009753227233887,1.0,3,0,194,-0.672078206735082,0.5
0.0,2.516935348510742,0.0,3,0,195,-1.4592239710714652,0.5
1.0,2.153939962387085,0.0,3,0,196,-1.738023961569141,0.5
0.0,1.9619404077529907,0.0,3,0,197,-2.1271829072087214,0.5
1.0,4.206952095031738,0.0,3,0,198,1.0037322573858996,0.5
1.0,3.08394193649292,1.0,3,0,199,-0.8086809463625746,0.5
1.0,3.591965675354004,1.0,3,0,200,-1.160601083775,0.5
1.0,3.14394474029541,0.0,3,0,201,1.695353073981575,0.5
0.0,3.9519705772399902,0.0,3,0,202,0.26531044991986136,0.5
0.0,3.7569732666015625,0.0,3,0,203,-1.3021680610194217,0.5
0.0,3.7759742736816406,0.0,3,0,204,1.273119992947284,0.5
0.0,2.239938974380493,0.0,3,0,205,0.3173859743872394,0.5
1.0,3.4879608154296875,1.0,3,0,206,-0.5705165438436647,0.5
1.0,2.9959378242492676,0.0,3,0,207,-0.16295700502812271,0.5
1.0,3.7039709091186523,1.0,3,0,208,0.07048166237054693,0.5
1.0,3.62296724319458,1.0,3,0,209,1.7788877611102982,0.5
1.0,3.7659738063812256,1.0,3,0,210,0.2760851947761213,0.5
0.0,4.34594202041626,0.0,3,0,211,0.410337140772463,0.5
1.0,3.5269627571105957,1.0,3,0,212,-0.1566338197411312,0.5
1.0,4.146956443786621,1.0,3,0,213,0.5863542155355007,0.5
0.0,2.244938850402832,0.0,3,0,214,-1.3627634965195619,0.5
0.0,3.0279393196105957,0.0,3,0,215,-2.1520147771268237,0.5
1.0,2.5049355030059814,1.0,3,0,216,-1.4681210921610184,0.5
0.0,2.9949378967285156,0.0,3,0,217,-0.5280863416750745,0.5
0.0,2.2279391288757324,0.0,3,0,218,0.47249943182295717,0.5
1.0,3.1859467029571533,1.0,3,0,219,1.6220650984660459,0.5
1.0,3.823976516723633,1.0,3,0,220,0.30845392846504893,0.5
1.0,3.124943733215332,1.0,3,0,221,-0.16439306035207857,0.5
1.0,3.2219483852386475,1.0,3,0,222,0.5225349357593712,0.5
1.0,3.1989474296569824,1.0,3,0,223,2.900526151472282,0.5
1.0,3.06394100189209,1.0,3,0,224,0.3080887465024782,0.5
1.0,3.7529730796813965,0.0,3,0,225,-0.21525379669694317,0.5
0.0,2.334937810897827,0.0,3,0,226,0.26595246219563384,0.5
0.0,2.4669361114501953,1.0,3,0,227,-0.35745224900657835,0.5
0.0,2.0679407119750977,0.0,3,0,228,-0.428275592674717,0.5
1.0,2.3719372749328613,1.0,3,0,229,-0.4229805347490041,0.5
0.0,4.450934410095215,1.0,3,0,230,0.3204842422954555,0.5
