subj_idx,response,cond,rt,trial,split_by,feedback,q_init
42,0.0,CD,1.255,1.0,1,0.0,0.5
42,1.0,EF,0.778,1.0,2,0.0,0.5
42,1.0,AB,0.647,1.0,0,1.0,0.5
42,1.0,AB,0.75,2.0,0,1.0,0.5
42,0.0,EF,0.772,2.0,2,1.0,0.5
42,1.0,CD,0.68,2.0,1,0.0,0.5
42,1.0,AB,0.535,3.0,0,1.0,0.5
42,1.0,CD,0.58,3.0,1,1.0,0.5
42,0.0,EF,0.461,3.0,2,0.0,0.5
42,1.0,CD,0.869,4.0,1,1.0,0.5
42,0.0,EF,0.572,4.0,2,1.0,0.5
42,1.0,AB,0.496,4.0,0,1.0,0.5
42,1.0,CD,0.621,5.0,1,1.0,0.5
42,0.0,EF,0.801,5.0,2,1.0,0.5
42,1.0,AB,0.598,5.0,0,0.0,0.5
42,1.0,AB,0.553,6.0,0,1.0,0.5
42,1.0,CD,0.657,6.0,1,1.0,0.5
42,0.0,EF,0.601,6.0,2,1.0,0.5
42,1.0,CD,0.564,7.0,1,1.0,0.5
42,1.0,AB,0.561,7.0,0,1.0,0.5
42,0.0,EF,0.839,7.0,2,0.0,0.5
42,1.0,CD,0.619,8.0,1,1.0,0.5
42,0.0,EF,0.555,8.0,2,0.0,0.5
42,1.0,AB,0.57,8.0,0,1.0,0.5
42,1.0,CD,0.502,9.0,1,1.0,0.5
42,1.0,AB,0.572,9.0,0,1.0,0.5
42,0.0,EF,0.666,9.0,2,0.0,0.5
42,1.0,CD,0.622,10.0,1,0.0,0.5
42,1.0,AB,0.535,10.0,0,0.0,0.5
42,0.0,EF,0.839,10.0,2,0.0,0.5
42,1.0,EF,0.726,11.0,2,1.0,0.5
42,0.0,CD,0.704,11.0,1,1.0,0.5
42,0.0,AB,0.78,11.0,0,0.0,0.5
42,0.0,CD,0.619,12.0,1,0.0,0.5
42,0.0,AB,0.697,12.0,0,0.0,0.5
42,0.0,EF,0.516,12.0,2,1.0,0.5
42,0.0,EF,0.61,13.0,2,0.0,0.5
42,1.0,AB,0.523,13.0,0,1.0,0.5
42,1.0,CD,0.484,13.0,1,1.0,0.5
42,0.0,EF,0.528,14.0,2,0.0,0.5
42,1.0,CD,0.542,14.0,1,0.0,0.5
42,0.0,AB,0.605,14.0,0,0.0,0.5
42,0.0,EF,0.503,15.0,2,1.0,0.5
42,1.0,CD,0.596,15.0,1,0.0,0.5
42,1.0,AB,0.557,15.0,0,1.0,0.5
42,0.0,EF,0.619,16.0,2,1.0,0.5
42,1.0,CD,0.692,16.0,1,1.0,0.5
42,1.0,AB,1.166,16.0,0,0.0,0.5
42,1.0,CD,0.656,17.0,1,1.0,0.5
42,1.0,AB,0.768,17.0,0,1.0,0.5
42,0.0,EF,1.237,17.0,2,1.0,0.5
42,1.0,CD,0.97,18.0,1,0.0,0.5
42,0.0,EF,0.741,18.0,2,1.0,0.5
42,1.0,AB,1.002,18.0,0,1.0,0.5
42,1.0,CD,1.242,19.0,1,1.0,0.5
42,1.0,AB,1.109,19.0,0,0.0,0.5
42,0.0,EF,1.0,19.0,2,1.0,0.5
42,0.0,EF,1.097,20.0,2,1.0,0.5
42,1.0,AB,1.005,20.0,0,0.0,0.5
42,0.0,CD,1.216,20.0,1,0.0,0.5
42,0.0,EF,1.574,21.0,2,0.0,0.5
42,1.0,AB,0.774,21.0,0,1.0,0.5
42,1.0,CD,0.682,21.0,1,0.0,0.5
42,1.0,AB,0.851,22.0,0,1.0,0.5
42,0.0,EF,0.627,22.0,2,1.0,0.5
42,1.0,CD,0.673,22.0,1,1.0,0.5
42,0.0,EF,0.71,23.0,2,1.0,0.5
42,1.0,CD,0.651,23.0,1,1.0,0.5
42,0.0,AB,0.698,23.0,0,0.0,0.5
42,0.0,EF,0.535,24.0,2,0.0,0.5
42,0.0,CD,0.915,24.0,1,1.0,0.5
42,1.0,AB,0.673,24.0,0,1.0,0.5
42,0.0,CD,0.907,25.0,1,0.0,0.5
42,1.0,AB,0.805,25.0,0,0.0,0.5
42,0.0,EF,0.71,25.0,2,0.0,0.5
42,1.0,AB,0.742,26.0,0,0.0,0.5
42,1.0,CD,0.906,26.0,1,1.0,0.5
42,0.0,EF,0.717,26.0,2,1.0,0.5
42,1.0,AB,0.796,27.0,0,1.0,0.5
42,1.0,CD,0.678,27.0,1,1.0,0.5
42,0.0,EF,0.728,27.0,2,0.0,0.5
42,1.0,AB,0.566,28.0,0,1.0,0.5
42,0.0,EF,0.697,28.0,2,0.0,0.5
42,1.0,CD,0.89,28.0,1,1.0,0.5
42,0.0,EF,2.054,29.0,2,0.0,0.5
42,1.0,AB,1.005,29.0,0,1.0,0.5
42,1.0,CD,0.75,29.0,1,1.0,0.5
42,1.0,AB,1.559,30.0,0,1.0,0.5
42,1.0,CD,2.4,30.0,1,1.0,0.5
42,0.0,EF,0.887,30.0,2,0.0,0.5
42,0.0,EF,0.759,31.0,2,0.0,0.5
42,1.0,CD,0.676,31.0,1,0.0,0.5
42,1.0,AB,1.115,31.0,0,0.0,0.5
42,0.0,EF,0.726,32.0,2,1.0,0.5
42,1.0,AB,0.751,32.0,0,0.0,0.5
42,1.0,CD,0.938,32.0,1,0.0,0.5
42,1.0,CD,0.744,33.0,1,1.0,0.5
42,0.0,EF,1.053,33.0,2,1.0,0.5
42,1.0,AB,0.968,33.0,0,1.0,0.5
42,1.0,AB,0.821,34.0,0,1.0,0.5
42,1.0,CD,0.72,34.0,1,0.0,0.5
42,0.0,EF,0.671,34.0,2,0.0,0.5
42,1.0,CD,0.806,35.0,1,1.0,0.5
42,0.0,EF,0.778,35.0,2,0.0,0.5
42,0.0,AB,0.93,35.0,0,0.0,0.5
42,1.0,AB,0.672,36.0,0,1.0,0.5
42,1.0,CD,2.398,36.0,1,1.0,0.5
42,0.0,EF,1.31,36.0,2,0.0,0.5
42,0.0,EF,1.196,37.0,2,0.0,0.5
42,1.0,AB,1.307,37.0,0,1.0,0.5
42,1.0,CD,0.974,37.0,1,1.0,0.5
42,1.0,AB,1.436,38.0,0,1.0,0.5
42,1.0,EF,1.292,38.0,2,1.0,0.5
42,1.0,CD,1.097,38.0,1,0.0,0.5
42,1.0,AB,1.265,39.0,0,1.0,0.5
42,1.0,EF,1.403,39.0,2,1.0,0.5
42,1.0,CD,1.337,39.0,1,1.0,0.5
42,1.0,AB,2.024,40.0,0,1.0,0.5
42,1.0,EF,1.448,40.0,2,1.0,0.5
42,1.0,CD,1.051,40.0,1,0.0,0.5
42,1.0,AB,1.319,41.0,0,1.0,0.5
42,1.0,EF,1.393,41.0,2,1.0,0.5
42,1.0,CD,0.828,41.0,1,1.0,0.5
42,1.0,EF,1.798,42.0,2,1.0,0.5
42,1.0,CD,1.614,42.0,1,1.0,0.5
42,1.0,AB,2.141,42.0,0,1.0,0.5
42,1.0,AB,1.184,43.0,0,1.0,0.5
42,1.0,EF,1.604,43.0,2,1.0,0.5
42,1.0,CD,1.083,43.0,1,0.0,0.5
42,1.0,AB,1.067,44.0,0,1.0,0.5
42,1.0,EF,1.71,44.0,2,1.0,0.5
42,1.0,CD,1.96,44.0,1,1.0,0.5
42,1.0,AB,1.099,45.0,0,1.0,0.5
42,1.0,EF,1.243,45.0,2,1.0,0.5
42,1.0,CD,1.556,45.0,1,0.0,0.5
42,1.0,EF,1.371,46.0,2,1.0,0.5
42,1.0,AB,1.04,46.0,0,1.0,0.5
42,1.0,CD,1.593,46.0,1,1.0,0.5
42,1.0,AB,1.016,47.0,0,1.0,0.5
42,1.0,EF,1.105,47.0,2,0.0,0.5
42,1.0,CD,1.169,47.0,1,1.0,0.5
42,1.0,EF,2.024,48.0,2,0.0,0.5
42,1.0,CD,1.256,48.0,1,1.0,0.5
42,1.0,AB,0.873,48.0,0,1.0,0.5
42,1.0,AB,1.13,49.0,0,1.0,0.5
42,1.0,CD,0.879,49.0,1,1.0,0.5
42,1.0,EF,2.193,49.0,2,1.0,0.5
42,1.0,CD,1.257,50.0,1,1.0,0.5
42,1.0,AB,0.801,50.0,0,1.0,0.5
42,1.0,EF,1.892,50.0,2,1.0,0.5
42,1.0,EF,1.377,51.0,2,0.0,0.5
42,1.0,CD,1.749,51.0,1,1.0,0.5
42,1.0,AB,0.88,51.0,0,1.0,0.5
42,1.0,CD,1.343,52.0,1,1.0,0.5
42,1.0,AB,0.846,52.0,0,1.0,0.5
42,1.0,EF,1.956,52.0,2,1.0,0.5
42,1.0,EF,1.325,53.0,2,0.0,0.5
42,1.0,CD,1.128,53.0,1,0.0,0.5
42,1.0,AB,0.904,53.0,0,1.0,0.5
42,1.0,AB,0.77,54.0,0,1.0,0.5
42,1.0,CD,0.939,54.0,1,1.0,0.5
42,1.0,EF,1.478,54.0,2,0.0,0.5
42,1.0,CD,1.902,55.0,1,1.0,0.5
42,0.0,EF,2.171,55.0,2,0.0,0.5
42,1.0,AB,0.887,55.0,0,1.0,0.5
42,1.0,EF,3.298,56.0,2,0.0,0.5
42,1.0,AB,0.757,56.0,0,1.0,0.5
42,1.0,CD,0.934,56.0,1,0.0,0.5
42,1.0,CD,0.988,57.0,1,0.0,0.5
42,0.0,EF,2.819,57.0,2,0.0,0.5
42,1.0,AB,0.798,57.0,0,1.0,0.5
42,1.0,CD,1.633,58.0,1,1.0,0.5
42,0.0,EF,1.787,58.0,2,1.0,0.5
42,1.0,AB,0.77,58.0,0,1.0,0.5
42,0.0,EF,4.508,59.0,2,1.0,0.5
42,1.0,CD,0.828,59.0,1,1.0,0.5
42,1.0,AB,0.705,59.0,0,0.0,0.5
42,1.0,AB,0.75,60.0,0,0.0,0.5
42,1.0,CD,0.782,60.0,1,1.0,0.5
42,0.0,EF,1.546,60.0,2,0.0,0.5
50,1.0,CD,1.389,1.0,1,0.0,0.5
50,0.0,AB,1.267,1.0,0,0.0,0.5
50,0.0,CD,1.469,2.0,1,0.0,0.5
50,0.0,AB,0.867,2.0,0,0.0,0.5
50,0.0,EF,1.412,2.0,2,1.0,0.5
50,0.0,EF,1.065,3.0,2,0.0,0.5
50,1.0,AB,1.2,3.0,0,1.0,0.5
50,1.0,CD,0.895,3.0,1,1.0,0.5
50,1.0,AB,1.17,4.0,0,0.0,0.5
50,1.0,EF,1.124,4.0,2,1.0,0.5
50,1.0,CD,0.983,4.0,1,0.0,0.5
50,1.0,EF,0.847,5.0,2,1.0,0.5
50,1.0,AB,0.881,5.0,0,1.0,0.5
50,0.0,CD,0.988,5.0,1,0.0,0.5
50,1.0,CD,0.87,6.0,1,0.0,0.5
50,1.0,AB,0.886,6.0,0,1.0,0.5
50,1.0,EF,0.544,6.0,2,0.0,0.5
50,1.0,EF,1.203,7.0,2,1.0,0.5
50,1.0,AB,1.019,7.0,0,1.0,0.5
50,0.0,CD,1.01,7.0,1,1.0,0.5
50,1.0,AB,1.087,8.0,0,1.0,0.5
50,1.0,EF,0.636,8.0,2,1.0,0.5
50,0.0,CD,0.802,8.0,1,0.0,0.5
50,1.0,AB,0.844,9.0,0,1.0,0.5
50,1.0,EF,0.711,9.0,2,1.0,0.5
50,0.0,CD,0.837,9.0,1,0.0,0.5
50,1.0,AB,0.875,10.0,0,1.0,0.5
50,0.0,CD,0.658,10.0,1,0.0,0.5
50,1.0,EF,0.551,10.0,2,0.0,0.5
50,0.0,CD,0.892,11.0,1,0.0,0.5
50,1.0,AB,0.983,11.0,0,1.0,0.5
50,1.0,EF,0.824,11.0,2,0.0,0.5
50,1.0,AB,0.891,12.0,0,1.0,0.5
50,0.0,EF,0.632,12.0,2,0.0,0.5
50,0.0,CD,0.814,12.0,1,1.0,0.5
50,1.0,AB,0.772,13.0,0,1.0,0.5
50,1.0,EF,0.799,13.0,2,0.0,0.5
50,0.0,CD,0.98,13.0,1,0.0,0.5
50,1.0,AB,0.654,14.0,0,1.0,0.5
50,0.0,CD,0.812,14.0,1,0.0,0.5
50,0.0,EF,1.211,14.0,2,1.0,0.5
50,0.0,EF,0.703,15.0,2,0.0,0.5
50,1.0,AB,0.945,15.0,0,0.0,0.5
50,1.0,CD,1.364,15.0,1,1.0,0.5
50,1.0,AB,0.747,16.0,0,1.0,0.5
50,0.0,CD,0.889,16.0,1,1.0,0.5
50,0.0,EF,0.649,16.0,2,0.0,0.5
50,0.0,CD,1.251,17.0,1,1.0,0.5
50,1.0,AB,0.956,17.0,0,1.0,0.5
50,0.0,EF,1.257,17.0,2,1.0,0.5
50,1.0,AB,0.807,18.0,0,1.0,0.5
50,0.0,CD,0.94,18.0,1,0.0,0.5
50,1.0,EF,1.19,18.0,2,1.0,0.5
50,0.0,EF,0.999,19.0,2,1.0,0.5
50,0.0,CD,0.89,19.0,1,0.0,0.5
50,1.0,AB,0.972,19.0,0,1.0,0.5
50,0.0,CD,0.669,20.0,1,0.0,0.5
50,1.0,AB,0.966,20.0,0,0.0,0.5
50,1.0,EF,0.858,20.0,2,0.0,0.5
50,0.0,CD,0.846,21.0,1,1.0,0.5
50,0.0,EF,0.861,21.0,2,0.0,0.5
50,1.0,AB,0.806,21.0,0,1.0,0.5
50,1.0,EF,0.783,22.0,2,1.0,0.5
50,0.0,CD,0.613,22.0,1,1.0,0.5
50,1.0,AB,0.661,22.0,0,0.0,0.5
50,0.0,EF,0.723,23.0,2,1.0,0.5
50,0.0,CD,0.612,23.0,1,1.0,0.5
50,1.0,AB,0.641,23.0,0,1.0,0.5
50,0.0,EF,0.74,24.0,2,1.0,0.5
50,1.0,AB,0.791,24.0,0,1.0,0.5
50,0.0,CD,0.877,24.0,1,0.0,0.5
50,1.0,AB,0.656,25.0,0,1.0,0.5
50,1.0,EF,0.661,25.0,2,1.0,0.5
50,0.0,CD,0.58,25.0,1,0.0,0.5
50,0.0,CD,0.518,26.0,1,0.0,0.5
50,0.0,EF,0.914,26.0,2,0.0,0.5
50,1.0,AB,0.66,26.0,0,1.0,0.5
50,1.0,CD,0.779,27.0,1,1.0,0.5
50,1.0,EF,0.833,27.0,2,0.0,0.5
50,1.0,AB,0.704,27.0,0,0.0,0.5
50,0.0,CD,0.81,28.0,1,0.0,0.5
50,0.0,EF,1.149,28.0,2,0.0,0.5
50,1.0,AB,0.707,28.0,0,1.0,0.5
50,1.0,EF,0.81,29.0,2,0.0,0.5
50,0.0,CD,1.193,29.0,1,0.0,0.5
50,1.0,AB,0.899,29.0,0,1.0,0.5
50,0.0,EF,0.878,30.0,2,0.0,0.5
50,1.0,AB,0.695,30.0,0,1.0,0.5
50,0.0,CD,0.727,30.0,1,1.0,0.5
50,0.0,CD,0.809,31.0,1,1.0,0.5
50,0.0,EF,1.432,31.0,2,1.0,0.5
50,1.0,AB,0.885,31.0,0,1.0,0.5
50,1.0,AB,0.714,32.0,0,1.0,0.5
50,0.0,EF,1.49,32.0,2,0.0,0.5
50,0.0,CD,0.844,32.0,1,0.0,0.5
50,0.0,EF,1.124,33.0,2,0.0,0.5
50,1.0,AB,0.877,33.0,0,1.0,0.5
50,0.0,CD,0.849,33.0,1,1.0,0.5
50,0.0,EF,0.794,34.0,2,1.0,0.5
50,1.0,AB,0.82,34.0,0,1.0,0.5
50,0.0,CD,0.719,34.0,1,0.0,0.5
50,1.0,CD,1.13,35.0,1,1.0,0.5
50,1.0,AB,0.911,35.0,0,1.0,0.5
50,0.0,EF,1.374,35.0,2,0.0,0.5
50,1.0,AB,0.707,36.0,0,0.0,0.5
50,0.0,CD,0.791,36.0,1,1.0,0.5
50,0.0,EF,0.974,36.0,2,1.0,0.5
50,0.0,EF,0.766,37.0,2,1.0,0.5
50,0.0,CD,0.915,37.0,1,1.0,0.5
50,1.0,AB,0.791,37.0,0,1.0,0.5
50,1.0,AB,0.977,38.0,0,1.0,0.5
50,0.0,EF,0.709,38.0,2,1.0,0.5
50,0.0,CD,0.986,38.0,1,0.0,0.5
50,1.0,AB,1.646,39.0,0,1.0,0.5
50,1.0,EF,1.128,39.0,2,0.0,0.5
50,0.0,CD,0.639,39.0,1,0.0,0.5
50,0.0,EF,0.871,40.0,2,1.0,0.5
50,0.0,CD,0.74,40.0,1,0.0,0.5
50,1.0,AB,0.584,40.0,0,1.0,0.5
50,1.0,AB,0.831,41.0,0,1.0,0.5
50,1.0,EF,1.185,41.0,2,1.0,0.5
50,0.0,CD,0.919,41.0,1,1.0,0.5
50,0.0,CD,1.104,42.0,1,0.0,0.5
50,1.0,AB,0.93,42.0,0,1.0,0.5
50,1.0,EF,1.822,42.0,2,1.0,0.5
50,1.0,AB,0.929,43.0,0,1.0,0.5
50,0.0,CD,1.235,43.0,1,0.0,0.5
50,1.0,EF,1.8,43.0,2,1.0,0.5
50,1.0,AB,0.982,44.0,0,0.0,0.5
50,0.0,CD,1.166,44.0,1,0.0,0.5
50,1.0,EF,1.29,44.0,2,1.0,0.5
50,1.0,AB,0.933,45.0,0,1.0,0.5
50,1.0,EF,1.528,45.0,2,1.0,0.5
50,0.0,CD,2.638,45.0,1,0.0,0.5
50,0.0,CD,0.814,46.0,1,0.0,0.5
50,1.0,AB,1.045,46.0,0,1.0,0.5
50,1.0,EF,2.619,46.0,2,0.0,0.5
50,1.0,CD,1.085,47.0,1,0.0,0.5
50,1.0,AB,0.764,47.0,0,0.0,0.5
50,1.0,EF,1.351,47.0,2,1.0,0.5
50,1.0,AB,1.116,48.0,0,1.0,0.5
50,1.0,EF,2.236,48.0,2,1.0,0.5
50,1.0,CD,1.325,48.0,1,0.0,0.5
50,0.0,CD,0.779,49.0,1,1.0,0.5
50,1.0,AB,0.855,49.0,0,1.0,0.5
50,1.0,EF,1.722,49.0,2,1.0,0.5
50,1.0,EF,0.76,50.0,2,1.0,0.5
50,1.0,AB,0.911,50.0,0,1.0,0.5
50,0.0,CD,0.783,50.0,1,0.0,0.5
50,0.0,EF,0.905,51.0,2,0.0,0.5
50,1.0,CD,0.819,51.0,1,0.0,0.5
50,1.0,AB,0.599,51.0,0,0.0,0.5
50,1.0,EF,0.895,52.0,2,0.0,0.5
50,1.0,AB,0.756,52.0,0,1.0,0.5
50,0.0,CD,0.813,52.0,1,0.0,0.5
50,1.0,EF,1.067,53.0,2,1.0,0.5
50,0.0,CD,0.749,53.0,1,0.0,0.5
50,1.0,AB,0.736,53.0,0,1.0,0.5
50,1.0,CD,1.241,54.0,1,0.0,0.5
50,0.0,EF,0.982,54.0,2,0.0,0.5
50,0.0,AB,0.608,54.0,0,1.0,0.5
50,0.0,CD,1.081,55.0,1,1.0,0.5
50,1.0,AB,0.663,55.0,0,1.0,0.5
50,1.0,EF,1.046,55.0,2,1.0,0.5
50,1.0,AB,0.98,56.0,0,1.0,0.5
50,0.0,CD,0.848,56.0,1,1.0,0.5
50,1.0,EF,1.528,56.0,2,1.0,0.5
50,1.0,EF,0.829,57.0,2,1.0,0.5
50,0.0,CD,0.583,57.0,1,0.0,0.5
50,1.0,AB,0.785,57.0,0,1.0,0.5
50,1.0,CD,1.529,58.0,1,1.0,0.5
50,1.0,EF,1.122,58.0,2,0.0,0.5
50,1.0,AB,0.803,58.0,0,1.0,0.5
50,0.0,EF,0.814,59.0,2,0.0,0.5
50,1.0,AB,0.704,59.0,0,1.0,0.5
50,1.0,CD,1.246,59.0,1,1.0,0.5
50,1.0,CD,1.187,60.0,1,1.0,0.5
50,1.0,AB,0.802,60.0,0,1.0,0.5
50,0.0,EF,0.953,60.0,2,0.0,0.5
50,1.0,AB,1.478,61.0,0,1.0,0.5
50,1.0,CD,1.334,61.0,1,0.0,0.5
50,1.0,EF,1.211,61.0,2,1.0,0.5
50,1.0,EF,1.137,62.0,2,0.0,0.5
50,1.0,AB,0.776,62.0,0,0.0,0.5
50,1.0,CD,1.348,62.0,1,0.0,0.5
50,1.0,AB,0.65,63.0,0,0.0,0.5
50,1.0,EF,0.858,63.0,2,0.0,0.5
50,0.0,CD,1.169,63.0,1,0.0,0.5
50,0.0,EF,2.209,64.0,2,0.0,0.5
50,0.0,CD,0.933,64.0,1,1.0,0.5
50,1.0,AB,0.692,64.0,0,0.0,0.5
50,0.0,CD,1.055,65.0,1,1.0,0.5
50,1.0,AB,0.704,65.0,0,1.0,0.5
50,1.0,EF,1.046,65.0,2,0.0,0.5
50,1.0,AB,0.692,66.0,0,1.0,0.5
50,1.0,EF,0.807,66.0,2,0.0,0.5
50,0.0,CD,1.667,66.0,1,0.0,0.5
50,1.0,AB,0.674,67.0,0,0.0,0.5
50,0.0,CD,0.895,67.0,1,1.0,0.5
50,0.0,EF,1.117,67.0,2,0.0,0.5
50,1.0,AB,0.794,68.0,0,0.0,0.5
50,1.0,EF,1.266,68.0,2,0.0,0.5
50,0.0,CD,1.43,68.0,1,1.0,0.5
50,1.0,CD,1.496,69.0,1,1.0,0.5
50,1.0,AB,1.466,69.0,0,1.0,0.5
50,0.0,EF,1.218,69.0,2,0.0,0.5
50,1.0,AB,1.05,70.0,0,1.0,0.5
50,1.0,CD,1.833,70.0,1,1.0,0.5
50,1.0,EF,1.686,70.0,2,1.0,0.5
50,1.0,CD,0.959,71.0,1,1.0,0.5
50,1.0,AB,0.955,71.0,0,1.0,0.5
50,1.0,EF,2.112,71.0,2,1.0,0.5
50,0.0,CD,1.645,72.0,1,0.0,0.5
50,1.0,AB,0.72,72.0,0,0.0,0.5
50,1.0,EF,1.561,72.0,2,1.0,0.5
50,1.0,CD,1.433,73.0,1,0.0,0.5
50,1.0,EF,1.794,73.0,2,0.0,0.5
50,1.0,AB,0.686,73.0,0,1.0,0.5
50,1.0,EF,1.159,74.0,2,1.0,0.5
50,0.0,CD,1.357,74.0,1,0.0,0.5
50,1.0,AB,1.395,74.0,0,0.0,0.5
50,0.0,CD,0.951,75.0,1,1.0,0.5
50,1.0,AB,0.838,75.0,0,1.0,0.5
50,1.0,EF,1.237,75.0,2,1.0,0.5
50,0.0,CD,1.496,76.0,1,0.0,0.5
50,1.0,AB,0.775,76.0,0,0.0,0.5
50,1.0,EF,0.876,76.0,2,1.0,0.5
50,1.0,EF,1.051,77.0,2,1.0,0.5
50,1.0,AB,0.636,77.0,0,1.0,0.5
50,0.0,CD,0.821,77.0,1,1.0,0.5
50,0.0,CD,0.972,78.0,1,0.0,0.5
50,1.0,AB,0.772,78.0,0,1.0,0.5
50,1.0,EF,1.149,78.0,2,0.0,0.5
50,1.0,AB,0.762,79.0,0,1.0,0.5
50,0.0,EF,0.806,79.0,2,1.0,0.5
50,0.0,CD,1.056,79.0,1,1.0,0.5
50,1.0,AB,1.039,80.0,0,1.0,0.5
50,1.0,EF,1.103,80.0,2,0.0,0.5
50,1.0,CD,1.026,80.0,1,1.0,0.5
50,1.0,CD,1.447,81.0,1,1.0,0.5
50,1.0,AB,0.87,81.0,0,1.0,0.5
50,0.0,EF,1.578,81.0,2,0.0,0.5
50,0.0,EF,1.041,82.0,2,0.0,0.5
50,1.0,AB,0.99,82.0,0,1.0,0.5
50,0.0,CD,1.802,82.0,1,0.0,0.5
50,1.0,AB,0.828,83.0,0,0.0,0.5
50,0.0,CD,1.954,83.0,1,0.0,0.5
50,0.0,EF,1.765,83.0,2,0.0,0.5
50,0.0,EF,0.914,84.0,2,0.0,0.5
50,1.0,CD,1.584,84.0,1,1.0,0.5
50,1.0,AB,1.566,84.0,0,1.0,0.5
50,1.0,EF,0.964,85.0,2,1.0,0.5
50,1.0,AB,0.842,85.0,0,1.0,0.5
50,0.0,CD,0.97,85.0,1,0.0,0.5
50,0.0,EF,1.288,86.0,2,0.0,0.5
50,1.0,AB,0.792,86.0,0,1.0,0.5
50,0.0,CD,1.485,86.0,1,0.0,0.5
50,1.0,AB,1.342,87.0,0,1.0,0.5
50,1.0,EF,1.672,87.0,2,1.0,0.5
50,0.0,CD,1.15,87.0,1,0.0,0.5
50,0.0,EF,0.946,88.0,2,0.0,0.5
50,1.0,AB,1.049,88.0,0,1.0,0.5
50,1.0,CD,1.12,88.0,1,0.0,0.5
50,1.0,EF,0.836,89.0,2,1.0,0.5
50,1.0,AB,0.737,89.0,0,1.0,0.5
50,0.0,CD,0.718,89.0,1,0.0,0.5
50,0.0,CD,0.826,90.0,1,0.0,0.5
50,1.0,EF,0.736,90.0,2,1.0,0.5
50,1.0,AB,0.768,90.0,0,1.0,0.5
50,0.0,CD,0.886,91.0,1,1.0,0.5
50,1.0,AB,1.44,91.0,0,1.0,0.5
50,0.0,EF,0.413,91.0,2,1.0,0.5
50,1.0,EF,0.692,92.0,2,1.0,0.5
50,1.0,AB,0.762,92.0,0,1.0,0.5
50,0.0,CD,0.655,92.0,1,1.0,0.5
50,1.0,CD,0.735,93.0,1,1.0,0.5
50,1.0,EF,0.536,93.0,2,0.0,0.5
50,1.0,AB,0.733,93.0,0,1.0,0.5
50,1.0,EF,0.609,94.0,2,1.0,0.5
50,0.0,CD,0.649,94.0,1,0.0,0.5
50,1.0,AB,1.272,94.0,0,1.0,0.5
50,1.0,AB,2.22,95.0,0,0.0,0.5
50,1.0,EF,0.717,95.0,2,0.0,0.5
50,0.0,CD,0.831,95.0,1,1.0,0.5
50,1.0,AB,0.856,96.0,0,1.0,0.5
50,1.0,CD,1.687,96.0,1,1.0,0.5
50,1.0,EF,1.004,96.0,2,1.0,0.5
50,1.0,AB,0.883,97.0,0,0.0,0.5
50,1.0,CD,0.743,97.0,1,0.0,0.5
50,1.0,EF,0.867,97.0,2,0.0,0.5
50,0.0,EF,2.353,98.0,2,0.0,0.5
50,1.0,CD,1.571,98.0,1,1.0,0.5
50,1.0,AB,1.128,98.0,0,1.0,0.5
50,0.0,CD,0.782,99.0,1,0.0,0.5
50,1.0,AB,0.67,99.0,0,1.0,0.5
50,1.0,EF,1.027,99.0,2,0.0,0.5
50,1.0,EF,0.533,100.0,2,1.0,0.5
50,1.0,AB,0.786,100.0,0,0.0,0.5
50,0.0,CD,2.407,100.0,1,0.0,0.5
50,0.0,CD,0.944,101.0,1,1.0,0.5
50,1.0,AB,0.741,101.0,0,1.0,0.5
50,0.0,EF,0.657,101.0,2,1.0,0.5
50,0.0,EF,0.812,102.0,2,1.0,0.5
50,1.0,AB,0.788,102.0,0,1.0,0.5
50,1.0,CD,1.168,102.0,1,0.0,0.5
50,0.0,CD,0.686,103.0,1,1.0,0.5
50,1.0,AB,0.633,103.0,0,1.0,0.5
50,1.0,EF,1.409,103.0,2,0.0,0.5
50,0.0,EF,0.771,104.0,2,0.0,0.5
50,1.0,AB,0.721,104.0,0,1.0,0.5
50,1.0,CD,1.078,104.0,1,0.0,0.5
50,1.0,EF,0.928,105.0,2,0.0,0.5
50,0.0,CD,3.248,105.0,1,0.0,0.5
50,1.0,AB,0.863,105.0,0,1.0,0.5
50,0.0,CD,0.866,106.0,1,0.0,0.5
50,1.0,AB,1.017,106.0,0,1.0,0.5
50,0.0,EF,1.247,106.0,2,0.0,0.5
50,1.0,CD,1.254,107.0,1,1.0,0.5
50,0.0,EF,1.043,107.0,2,1.0,0.5
50,1.0,AB,0.642,107.0,0,1.0,0.5
50,1.0,AB,0.921,108.0,0,0.0,0.5
50,0.0,EF,1.192,108.0,2,0.0,0.5
50,0.0,CD,1.081,108.0,1,0.0,0.5
50,0.0,CD,0.479,109.0,1,0.0,0.5
50,0.0,EF,0.858,109.0,2,1.0,0.5
50,1.0,AB,0.763,109.0,0,1.0,0.5
50,0.0,CD,0.799,110.0,1,0.0,0.5
50,1.0,EF,1.224,110.0,2,1.0,0.5
50,1.0,AB,0.645,110.0,0,1.0,0.5
50,0.0,CD,0.702,111.0,1,1.0,0.5
50,1.0,EF,0.715,111.0,2,0.0,0.5
50,1.0,AB,0.777,111.0,0,1.0,0.5
50,0.0,EF,0.849,112.0,2,0.0,0.5
50,0.0,CD,0.769,112.0,1,1.0,0.5
50,1.0,AB,0.664,112.0,0,1.0,0.5
50,1.0,AB,1.63,113.0,0,1.0,0.5
50,0.0,EF,0.9,113.0,2,0.0,0.5
50,1.0,CD,1.113,113.0,1,1.0,0.5
50,0.0,CD,1.383,114.0,1,0.0,0.5
50,1.0,AB,0.708,114.0,0,1.0,0.5
50,1.0,EF,0.901,114.0,2,1.0,0.5
50,0.0,CD,0.911,115.0,1,0.0,0.5
50,1.0,AB,0.705,115.0,0,1.0,0.5
50,0.0,EF,1.501,115.0,2,1.0,0.5
50,1.0,AB,0.672,116.0,0,1.0,0.5
50,0.0,EF,0.79,116.0,2,0.0,0.5
50,0.0,CD,2.284,116.0,1,0.0,0.5
50,0.0,CD,0.887,117.0,1,1.0,0.5
50,1.0,AB,0.622,117.0,0,1.0,0.5
50,0.0,EF,1.644,117.0,2,1.0,0.5
50,1.0,CD,1.066,118.0,1,1.0,0.5
50,1.0,EF,1.272,118.0,2,1.0,0.5
50,1.0,AB,1.023,118.0,0,0.0,0.5
50,1.0,AB,0.719,119.0,0,0.0,0.5
50,0.0,EF,4.706,119.0,2,1.0,0.5
50,0.0,CD,0.631,119.0,1,0.0,0.5
50,1.0,CD,3.142,120.0,1,1.0,0.5
50,1.0,AB,0.633,120.0,0,1.0,0.5
50,1.0,EF,0.591,120.0,2,1.0,0.5
56,1.0,AB,2.396,1.0,0,1.0,0.5
56,0.0,EF,1.319,1.0,2,0.0,0.5
56,0.0,CD,1.19,1.0,1,0.0,0.5
56,1.0,AB,0.917,2.0,0,1.0,0.5
56,0.0,EF,0.973,2.0,2,0.0,0.5
56,1.0,CD,0.976,2.0,1,1.0,0.5
56,0.0,AB,0.738,3.0,0,0.0,0.5
56,1.0,CD,0.845,3.0,1,0.0,0.5
56,0.0,EF,1.075,3.0,2,0.0,0.5
56,0.0,CD,1.202,4.0,1,0.0,0.5
56,1.0,EF,1.221,4.0,2,1.0,0.5
56,1.0,AB,0.731,4.0,0,1.0,0.5
56,1.0,EF,1.449,5.0,2,0.0,0.5
56,1.0,AB,1.157,5.0,0,1.0,0.5
56,1.0,CD,0.774,5.0,1,0.0,0.5
56,1.0,AB,0.603,6.0,0,1.0,0.5
56,0.0,EF,0.884,6.0,2,1.0,0.5
56,0.0,CD,0.908,6.0,1,0.0,0.5
56,0.0,EF,1.036,7.0,2,0.0,0.5
56,1.0,CD,1.007,7.0,1,0.0,0.5
56,0.0,AB,0.358,7.0,0,0.0,0.5
56,0.0,CD,0.317,8.0,1,1.0,0.5
56,1.0,EF,0.542,8.0,2,0.0,0.5
56,1.0,AB,0.483,8.0,0,1.0,0.5
56,1.0,EF,0.707,9.0,2,1.0,0.5
56,1.0,CD,0.317,9.0,1,0.0,0.5
56,0.0,AB,1.09,9.0,0,0.0,0.5
56,0.0,EF,0.879,10.0,2,1.0,0.5
56,0.0,CD,0.507,10.0,1,0.0,0.5
56,1.0,AB,0.329,10.0,0,0.0,0.5
56,0.0,AB,0.293,11.0,0,0.0,0.5
56,1.0,EF,0.661,11.0,2,1.0,0.5
56,0.0,CD,0.601,11.0,1,0.0,0.5
56,1.0,AB,0.483,12.0,0,0.0,0.5
56,0.0,CD,0.227,12.0,1,0.0,0.5
56,1.0,EF,0.34,12.0,2,0.0,0.5
56,1.0,AB,0.243,13.0,0,1.0,0.5
56,0.0,CD,0.708,13.0,1,1.0,0.5
56,0.0,EF,0.592,13.0,2,0.0,0.5
56,0.0,EF,0.989,14.0,2,1.0,0.5
56,1.0,CD,1.094,14.0,1,0.0,0.5
56,1.0,AB,1.314,14.0,0,1.0,0.5
56,1.0,EF,0.624,15.0,2,1.0,0.5
56,1.0,AB,1.234,15.0,0,0.0,0.5
56,1.0,CD,0.541,15.0,1,1.0,0.5
56,1.0,CD,0.595,16.0,1,1.0,0.5
56,1.0,AB,0.303,16.0,0,1.0,0.5
56,1.0,EF,0.585,16.0,2,1.0,0.5
56,0.0,CD,0.76,17.0,1,1.0,0.5
56,0.0,EF,0.684,17.0,2,1.0,0.5
56,1.0,AB,0.732,17.0,0,1.0,0.5
56,0.0,CD,0.699,18.0,1,0.0,0.5
56,0.0,EF,1.13,18.0,2,1.0,0.5
56,1.0,AB,0.678,18.0,0,1.0,0.5
56,0.0,CD,0.663,19.0,1,0.0,0.5
56,0.0,EF,0.408,19.0,2,1.0,0.5
56,1.0,AB,0.494,19.0,0,1.0,0.5
56,1.0,AB,0.701,20.0,0,1.0,0.5
56,0.0,CD,1.249,20.0,1,0.0,0.5
56,1.0,EF,0.249,20.0,2,1.0,0.5
56,0.0,AB,0.518,21.0,0,1.0,0.5
56,0.0,EF,0.52,21.0,2,1.0,0.5
56,0.0,CD,0.549,21.0,1,1.0,0.5
56,0.0,AB,0.317,22.0,0,0.0,0.5
56,1.0,CD,0.756,22.0,1,0.0,0.5
56,1.0,EF,0.22,23.0,2,0.0,0.5
56,1.0,AB,0.434,24.0,0,1.0,0.5
56,0.0,EF,0.753,24.0,2,0.0,0.5
56,0.0,EF,0.919,25.0,2,1.0,0.5
56,1.0,CD,0.947,25.0,1,0.0,0.5
56,1.0,AB,1.096,25.0,0,1.0,0.5
56,0.0,CD,1.274,26.0,1,1.0,0.5
56,0.0,EF,1.175,26.0,2,0.0,0.5
56,1.0,AB,1.343,26.0,0,1.0,0.5
56,1.0,CD,0.413,27.0,1,1.0,0.5
56,0.0,AB,0.616,27.0,0,0.0,0.5
56,1.0,EF,0.565,27.0,2,1.0,0.5
56,0.0,CD,0.377,28.0,1,0.0,0.5
56,0.0,EF,0.322,28.0,2,1.0,0.5
56,1.0,AB,0.899,28.0,0,0.0,0.5
56,1.0,CD,0.544,29.0,1,1.0,0.5
56,1.0,EF,0.974,29.0,2,1.0,0.5
56,1.0,AB,1.257,29.0,0,1.0,0.5
56,1.0,EF,2.649,30.0,2,1.0,0.5
56,1.0,AB,2.004,30.0,0,1.0,0.5
56,0.0,CD,0.876,30.0,1,0.0,0.5
56,1.0,EF,0.978,31.0,2,1.0,0.5
56,1.0,CD,0.604,31.0,1,1.0,0.5
56,0.0,AB,0.726,31.0,0,0.0,0.5
56,1.0,EF,3.854,32.0,2,1.0,0.5
56,1.0,CD,2.75,32.0,1,0.0,0.5
56,1.0,AB,0.704,32.0,0,1.0,0.5
56,0.0,EF,0.276,33.0,2,0.0,0.5
56,0.0,CD,0.404,33.0,1,0.0,0.5
56,0.0,AB,0.285,33.0,0,0.0,0.5
56,0.0,AB,0.206,34.0,0,0.0,0.5
56,0.0,CD,1.368,34.0,1,0.0,0.5
56,0.0,EF,0.258,34.0,2,0.0,0.5
56,0.0,AB,0.265,35.0,0,0.0,0.5
56,1.0,CD,0.386,35.0,1,1.0,0.5
56,1.0,EF,0.448,35.0,2,1.0,0.5
56,1.0,AB,0.701,36.0,0,1.0,0.5
56,0.0,EF,2.045,36.0,2,0.0,0.5
56,0.0,CD,0.959,36.0,1,0.0,0.5
56,1.0,EF,1.126,37.0,2,1.0,0.5
56,0.0,AB,1.504,37.0,0,0.0,0.5
56,0.0,CD,0.99,37.0,1,0.0,0.5
56,1.0,CD,1.189,38.0,1,1.0,0.5
56,1.0,AB,0.907,38.0,0,1.0,0.5
56,0.0,EF,0.662,38.0,2,0.0,0.5
56,1.0,AB,0.975,39.0,0,1.0,0.5
56,1.0,EF,1.123,39.0,2,1.0,0.5
56,1.0,CD,0.632,39.0,1,0.0,0.5
56,1.0,AB,1.055,40.0,0,1.0,0.5
56,0.0,EF,1.454,40.0,2,0.0,0.5
56,0.0,CD,0.497,40.0,1,0.0,0.5
56,0.0,AB,0.389,41.0,0,1.0,0.5
56,1.0,EF,0.28,41.0,2,1.0,0.5
56,1.0,CD,0.34,41.0,1,0.0,0.5
56,0.0,AB,2.309,42.0,0,0.0,0.5
56,0.0,EF,1.084,42.0,2,1.0,0.5
56,1.0,CD,1.124,42.0,1,0.0,0.5
56,0.0,EF,1.356,43.0,2,1.0,0.5
56,1.0,CD,1.112,43.0,1,1.0,0.5
56,1.0,AB,0.429,43.0,0,1.0,0.5
56,0.0,EF,0.619,44.0,2,0.0,0.5
56,0.0,AB,0.565,44.0,0,0.0,0.5
56,1.0,CD,0.275,45.0,1,0.0,0.5
56,0.0,AB,0.281,45.0,0,0.0,0.5
56,1.0,EF,0.425,45.0,2,0.0,0.5
56,1.0,EF,0.69,46.0,2,0.0,0.5
56,1.0,AB,0.396,46.0,0,1.0,0.5
56,0.0,CD,0.318,46.0,1,0.0,0.5
56,0.0,AB,1.421,47.0,0,1.0,0.5
56,1.0,EF,0.288,47.0,2,0.0,0.5
56,1.0,EF,0.26,48.0,2,1.0,0.5
56,1.0,CD,0.245,49.0,1,1.0,0.5
56,0.0,CD,0.487,50.0,1,0.0,0.5
56,0.0,EF,0.219,50.0,2,0.0,0.5
56,1.0,CD,0.271,51.0,1,1.0,0.5
56,1.0,EF,0.262,52.0,2,0.0,0.5
56,0.0,CD,0.239,52.0,1,0.0,0.5
56,1.0,EF,0.787,53.0,2,0.0,0.5
56,1.0,CD,0.763,53.0,1,1.0,0.5
56,1.0,AB,2.513,53.0,0,1.0,0.5
56,1.0,CD,0.906,54.0,1,0.0,0.5
56,0.0,AB,0.529,54.0,0,0.0,0.5
56,0.0,EF,0.216,55.0,2,0.0,0.5
56,1.0,CD,0.265,55.0,1,1.0,0.5
56,0.0,AB,0.216,56.0,0,1.0,0.5
56,0.0,CD,0.23,56.0,1,0.0,0.5
56,1.0,EF,0.211,56.0,2,1.0,0.5
56,0.0,EF,0.211,57.0,2,0.0,0.5
56,0.0,AB,0.295,57.0,0,0.0,0.5
56,1.0,CD,0.258,58.0,1,0.0,0.5
56,1.0,AB,0.294,58.0,0,1.0,0.5
56,0.0,EF,0.242,58.0,2,0.0,0.5
56,1.0,AB,0.321,59.0,0,1.0,0.5
56,1.0,EF,0.253,59.0,2,0.0,0.5
56,0.0,CD,0.462,59.0,1,1.0,0.5
56,0.0,CD,0.355,60.0,1,0.0,0.5
56,1.0,AB,0.319,60.0,0,1.0,0.5
56,1.0,EF,0.222,60.0,2,1.0,0.5
56,1.0,EF,0.58,61.0,2,1.0,0.5
56,1.0,CD,0.673,61.0,1,0.0,0.5
56,1.0,AB,0.989,61.0,0,1.0,0.5
56,1.0,AB,0.883,62.0,0,1.0,0.5
56,0.0,CD,1.34,62.0,1,0.0,0.5
56,0.0,EF,0.805,62.0,2,0.0,0.5
56,1.0,EF,1.172,63.0,2,1.0,0.5
56,0.0,CD,0.256,63.0,1,0.0,0.5
56,1.0,AB,0.439,63.0,0,1.0,0.5
56,1.0,EF,0.491,64.0,2,0.0,0.5
56,1.0,AB,0.23,64.0,0,1.0,0.5
56,1.0,CD,0.212,64.0,1,1.0,0.5
56,1.0,CD,0.229,65.0,1,1.0,0.5
56,1.0,AB,0.21,65.0,0,1.0,0.5
56,1.0,EF,0.225,65.0,2,1.0,0.5
56,1.0,CD,0.215,66.0,1,0.0,0.5
56,0.0,AB,0.245,66.0,0,0.0,0.5
56,1.0,CD,0.202,67.0,1,1.0,0.5
56,1.0,AB,0.216,67.0,0,1.0,0.5
56,1.0,EF,0.254,67.0,2,1.0,0.5
56,0.0,AB,0.229,68.0,0,0.0,0.5
56,0.0,EF,0.26,68.0,2,1.0,0.5
56,0.0,CD,0.25,68.0,1,0.0,0.5
56,0.0,CD,0.216,69.0,1,1.0,0.5
56,1.0,AB,1.207,69.0,0,1.0,0.5
56,0.0,CD,0.437,70.0,1,0.0,0.5
56,0.0,AB,0.22,70.0,0,0.0,0.5
56,0.0,EF,0.218,70.0,2,0.0,0.5
56,1.0,AB,0.228,71.0,0,0.0,0.5
56,0.0,EF,0.29,71.0,2,1.0,0.5
56,0.0,CD,0.21,72.0,1,0.0,0.5
56,1.0,AB,0.409,72.0,0,1.0,0.5
56,0.0,EF,0.622,73.0,2,0.0,0.5
56,1.0,AB,0.285,73.0,0,1.0,0.5
56,1.0,EF,0.519,74.0,2,0.0,0.5
56,1.0,CD,0.389,74.0,1,1.0,0.5
56,0.0,CD,0.52,75.0,1,0.0,0.5
56,1.0,EF,0.314,75.0,2,0.0,0.5
56,1.0,AB,0.392,75.0,0,1.0,0.5
56,0.0,EF,0.233,76.0,2,0.0,0.5
56,0.0,AB,0.308,76.0,0,0.0,0.5
56,0.0,CD,0.384,76.0,1,0.0,0.5
56,0.0,CD,0.658,77.0,1,0.0,0.5
56,0.0,AB,0.402,77.0,0,0.0,0.5
56,1.0,EF,0.242,77.0,2,1.0,0.5
56,1.0,EF,0.773,78.0,2,0.0,0.5
56,0.0,CD,0.492,78.0,1,1.0,0.5
56,1.0,AB,0.714,78.0,0,1.0,0.5
56,1.0,AB,0.786,79.0,0,1.0,0.5
56,0.0,EF,1.169,79.0,2,1.0,0.5
56,0.0,CD,0.799,79.0,1,0.0,0.5
56,1.0,AB,0.65,80.0,0,1.0,0.5
56,1.0,CD,0.787,80.0,1,1.0,0.5
56,1.0,EF,0.831,80.0,2,0.0,0.5
56,1.0,EF,0.481,81.0,2,0.0,0.5
56,1.0,AB,0.58,81.0,0,1.0,0.5
56,0.0,CD,0.384,81.0,1,1.0,0.5
56,1.0,AB,0.774,82.0,0,1.0,0.5
56,1.0,CD,0.511,82.0,1,1.0,0.5
56,0.0,EF,0.894,82.0,2,0.0,0.5
56,0.0,AB,0.617,83.0,0,0.0,0.5
56,1.0,CD,0.585,83.0,1,0.0,0.5
56,0.0,EF,0.766,83.0,2,1.0,0.5
56,1.0,CD,0.454,84.0,1,1.0,0.5
56,0.0,EF,0.68,84.0,2,0.0,0.5
56,1.0,AB,0.7,84.0,0,1.0,0.5
56,1.0,CD,3.1,85.0,1,1.0,0.5
56,0.0,EF,2.079,85.0,2,0.0,0.5
56,1.0,AB,1.134,85.0,0,1.0,0.5
56,1.0,CD,3.654,86.0,1,1.0,0.5
56,1.0,AB,0.655,86.0,0,1.0,0.5
56,0.0,EF,0.628,86.0,2,1.0,0.5
56,1.0,AB,1.271,87.0,0,1.0,0.5
56,1.0,CD,2.221,87.0,1,1.0,0.5
56,0.0,EF,1.056,87.0,2,0.0,0.5
56,1.0,EF,0.674,88.0,2,1.0,0.5
56,1.0,AB,1.082,88.0,0,1.0,0.5
56,0.0,CD,0.707,88.0,1,1.0,0.5
56,1.0,AB,1.467,89.0,0,1.0,0.5
56,1.0,CD,1.338,89.0,1,1.0,0.5
56,1.0,EF,0.992,89.0,2,0.0,0.5
56,1.0,AB,0.548,90.0,0,1.0,0.5
56,1.0,EF,0.79,90.0,2,1.0,0.5
56,1.0,CD,1.128,90.0,1,1.0,0.5
56,0.0,AB,0.998,91.0,0,1.0,0.5
56,0.0,CD,0.787,91.0,1,0.0,0.5
56,0.0,EF,1.931,91.0,2,1.0,0.5
56,1.0,AB,0.529,92.0,0,1.0,0.5
56,1.0,CD,0.403,92.0,1,0.0,0.5
56,0.0,CD,0.777,93.0,1,0.0,0.5
56,0.0,AB,0.633,93.0,0,0.0,0.5
56,0.0,EF,0.231,93.0,2,0.0,0.5
56,0.0,AB,0.291,94.0,0,0.0,0.5
56,0.0,EF,0.266,94.0,2,1.0,0.5
56,0.0,CD,0.9,95.0,1,0.0,0.5
56,1.0,AB,1.444,95.0,0,0.0,0.5
56,1.0,EF,0.263,95.0,2,0.0,0.5
56,1.0,EF,0.666,96.0,2,0.0,0.5
56,0.0,CD,0.475,96.0,1,0.0,0.5
56,0.0,CD,0.58,97.0,1,0.0,0.5
56,1.0,AB,0.246,97.0,0,0.0,0.5
56,1.0,EF,0.312,97.0,2,1.0,0.5
56,1.0,CD,0.482,98.0,1,1.0,0.5
56,1.0,AB,0.881,98.0,0,1.0,0.5
56,1.0,EF,2.08,98.0,2,1.0,0.5
56,1.0,CD,3.002,99.0,1,0.0,0.5
56,0.0,EF,0.508,99.0,2,1.0,0.5
56,0.0,AB,0.465,99.0,0,0.0,0.5
56,1.0,CD,0.214,100.0,1,0.0,0.5
56,1.0,AB,0.223,100.0,0,1.0,0.5
56,0.0,EF,0.254,100.0,2,0.0,0.5
3,1.0,CD,5.849,1.0,1,0.0,0.5
3,1.0,EF,3.569,1.0,2,1.0,0.5
3,0.0,AB,2.335,1.0,0,0.0,0.5
3,1.0,EF,2.692,2.0,2,1.0,0.5
3,0.0,AB,2.332,2.0,0,0.0,0.5
3,1.0,CD,3.081,2.0,1,1.0,0.5
3,0.0,EF,2.721,3.0,2,1.0,0.5
3,1.0,CD,1.936,3.0,1,1.0,0.5
3,0.0,AB,1.717,3.0,0,1.0,0.5
3,0.0,AB,4.362,4.0,0,0.0,0.5
3,1.0,CD,1.632,4.0,1,1.0,0.5
3,0.0,EF,2.081,4.0,2,0.0,0.5
3,0.0,AB,1.434,5.0,0,0.0,0.5
3,1.0,CD,2.194,5.0,1,1.0,0.5
3,0.0,EF,1.79,5.0,2,1.0,0.5
3,0.0,EF,1.922,6.0,2,0.0,0.5
3,1.0,CD,1.631,6.0,1,1.0,0.5
3,0.0,AB,1.913,6.0,0,0.0,0.5
3,1.0,CD,1.64,7.0,1,1.0,0.5
3,0.0,EF,1.554,7.0,2,0.0,0.5
3,0.0,AB,2.342,7.0,0,1.0,0.5
3,1.0,CD,1.676,8.0,1,1.0,0.5
3,1.0,EF,2.316,8.0,2,0.0,0.5
3,0.0,AB,1.77,8.0,0,1.0,0.5
3,1.0,AB,2.614,9.0,0,1.0,0.5
3,0.0,EF,1.617,9.0,2,0.0,0.5
3,1.0,CD,1.46,9.0,1,0.0,0.5
3,0.0,EF,1.86,10.0,2,0.0,0.5
3,0.0,AB,1.509,10.0,0,0.0,0.5
3,1.0,CD,1.411,10.0,1,0.0,0.5
3,1.0,EF,1.823,11.0,2,0.0,0.5
3,0.0,CD,2.032,11.0,1,0.0,0.5
3,0.0,AB,2.05,11.0,0,1.0,0.5
3,0.0,AB,1.675,12.0,0,0.0,0.5
3,0.0,EF,1.786,12.0,2,0.0,0.5
3,1.0,CD,1.519,12.0,1,1.0,0.5
3,1.0,CD,1.564,13.0,1,1.0,0.5
3,1.0,AB,1.753,13.0,0,1.0,0.5
3,0.0,EF,1.709,13.0,2,0.0,0.5
3,1.0,CD,1.524,14.0,1,1.0,0.5
3,0.0,AB,1.386,14.0,0,0.0,0.5
3,1.0,EF,3.126,14.0,2,0.0,0.5
3,0.0,AB,2.108,15.0,0,0.0,0.5
3,0.0,EF,1.619,15.0,2,0.0,0.5
3,1.0,CD,1.789,15.0,1,1.0,0.5
3,1.0,EF,3.672,16.0,2,1.0,0.5
3,1.0,CD,1.737,16.0,1,1.0,0.5
3,1.0,AB,2.126,16.0,0,0.0,0.5
3,0.0,AB,2.236,17.0,0,1.0,0.5
3,1.0,CD,1.358,17.0,1,0.0,0.5
3,0.0,EF,1.538,17.0,2,0.0,0.5
3,1.0,CD,1.352,18.0,1,0.0,0.5
3,0.0,EF,2.645,18.0,2,0.0,0.5
3,1.0,AB,2.391,18.0,0,0.0,0.5
3,1.0,EF,2.314,19.0,2,1.0,0.5
3,1.0,CD,1.65,19.0,1,0.0,0.5
3,0.0,AB,2.482,19.0,0,1.0,0.5
3,0.0,EF,1.921,20.0,2,0.0,0.5
3,1.0,CD,1.312,20.0,1,1.0,0.5
3,0.0,AB,1.622,20.0,0,0.0,0.5
3,1.0,AB,2.193,21.0,0,1.0,0.5
3,1.0,CD,1.173,21.0,1,0.0,0.5
3,1.0,EF,1.969,21.0,2,1.0,0.5
3,1.0,EF,1.854,22.0,2,1.0,0.5
3,0.0,CD,3.486,22.0,1,0.0,0.5
3,1.0,AB,1.893,22.0,0,1.0,0.5
3,1.0,EF,1.694,23.0,2,1.0,0.5
3,1.0,CD,1.301,23.0,1,1.0,0.5
3,1.0,AB,2.236,23.0,0,0.0,0.5
3,1.0,AB,1.245,24.0,0,1.0,0.5
3,1.0,EF,1.903,24.0,2,0.0,0.5
3,1.0,CD,1.557,24.0,1,0.0,0.5
3,1.0,CD,1.234,25.0,1,0.0,0.5
3,1.0,AB,2.011,25.0,0,0.0,0.5
3,1.0,EF,1.886,25.0,2,1.0,0.5
3,1.0,AB,3.35,26.0,0,1.0,0.5
3,1.0,EF,2.211,26.0,2,1.0,0.5
3,1.0,CD,1.494,26.0,1,1.0,0.5
3,1.0,EF,1.645,27.0,2,0.0,0.5
3,1.0,AB,3.814,27.0,0,1.0,0.5
3,1.0,CD,3.089,27.0,1,1.0,0.5
3,1.0,AB,2.369,28.0,0,1.0,0.5
3,1.0,CD,1.724,28.0,1,1.0,0.5
3,1.0,EF,1.851,28.0,2,1.0,0.5
3,1.0,EF,1.476,29.0,2,1.0,0.5
3,0.0,AB,1.428,29.0,0,0.0,0.5
3,1.0,CD,1.255,29.0,1,1.0,0.5
3,1.0,EF,1.647,30.0,2,1.0,0.5
3,1.0,CD,1.456,30.0,1,1.0,0.5
3,1.0,AB,2.417,30.0,0,0.0,0.5
3,0.0,AB,2.307,31.0,0,0.0,0.5
3,1.0,EF,2.37,31.0,2,1.0,0.5
3,1.0,CD,1.318,31.0,1,1.0,0.5
3,1.0,CD,1.549,32.0,1,0.0,0.5
3,1.0,AB,1.401,32.0,0,1.0,0.5
3,1.0,EF,3.499,32.0,2,1.0,0.5
3,1.0,CD,1.299,33.0,1,0.0,0.5
3,1.0,AB,1.385,33.0,0,1.0,0.5
3,1.0,EF,2.077,33.0,2,1.0,0.5
3,1.0,CD,1.365,34.0,1,1.0,0.5
3,1.0,EF,1.898,34.0,2,1.0,0.5
3,1.0,AB,1.393,34.0,0,1.0,0.5
3,1.0,CD,1.173,35.0,1,1.0,0.5
3,1.0,AB,1.512,35.0,0,1.0,0.5
3,1.0,EF,2.519,35.0,2,0.0,0.5
3,1.0,CD,1.309,36.0,1,1.0,0.5
3,1.0,EF,1.621,36.0,2,1.0,0.5
3,0.0,AB,1.774,36.0,0,0.0,0.5
3,1.0,EF,1.754,37.0,2,1.0,0.5
3,1.0,CD,2.599,37.0,1,1.0,0.5
3,1.0,AB,3.738,37.0,0,0.0,0.5
3,0.0,AB,3.103,38.0,0,0.0,0.5
3,1.0,EF,4.718,38.0,2,1.0,0.5
3,1.0,CD,1.366,38.0,1,1.0,0.5
3,1.0,EF,2.009,39.0,2,1.0,0.5
3,0.0,AB,2.261,39.0,0,0.0,0.5
3,1.0,CD,1.213,39.0,1,0.0,0.5
3,1.0,AB,2.32,40.0,0,1.0,0.5
3,0.0,EF,3.622,40.0,2,0.0,0.5
3,1.0,CD,1.832,40.0,1,1.0,0.5
4,0.0,AB,4.557,1.0,0,0.0,0.5
4,0.0,CD,0.835,1.0,1,0.0,0.5
4,1.0,EF,3.755,1.0,2,1.0,0.5
4,1.0,CD,2.641,2.0,1,1.0,0.5
4,0.0,EF,1.186,2.0,2,1.0,0.5
4,0.0,AB,0.99,2.0,0,0.0,0.5
4,1.0,EF,1.129,3.0,2,0.0,0.5
4,0.0,CD,1.72,3.0,1,1.0,0.5
4,1.0,AB,1.781,3.0,0,1.0,0.5
4,1.0,CD,1.466,4.0,1,0.0,0.5
4,0.0,AB,1.289,4.0,0,1.0,0.5
4,0.0,EF,1.249,4.0,2,1.0,0.5
4,1.0,EF,1.202,5.0,2,0.0,0.5
4,1.0,AB,1.413,5.0,0,1.0,0.5
4,1.0,CD,1.719,5.0,1,1.0,0.5
4,0.0,AB,1.206,6.0,0,0.0,0.5
4,0.0,CD,0.72,6.0,1,0.0,0.5
4,0.0,EF,1.638,6.0,2,0.0,0.5
4,1.0,AB,3.127,7.0,0,1.0,0.5
4,0.0,CD,0.934,7.0,1,1.0,0.5
4,1.0,EF,1.043,7.0,2,1.0,0.5
4,0.0,AB,0.949,8.0,0,1.0,0.5
4,0.0,CD,1.265,8.0,1,0.0,0.5
4,0.0,EF,1.489,8.0,2,0.0,0.5
4,0.0,AB,1.776,9.0,0,0.0,0.5
4,1.0,CD,1.229,9.0,1,1.0,0.5
4,1.0,EF,1.014,9.0,2,0.0,0.5
4,0.0,AB,0.842,10.0,0,0.0,0.5
4,0.0,EF,2.746,10.0,2,1.0,0.5
4,0.0,CD,1.393,10.0,1,0.0,0.5
4,1.0,EF,0.716,11.0,2,1.0,0.5
4,0.0,CD,0.522,11.0,1,0.0,0.5
4,1.0,AB,2.063,11.0,0,0.0,0.5
4,1.0,AB,1.873,12.0,0,1.0,0.5
4,0.0,CD,2.344,12.0,1,0.0,0.5
4,0.0,EF,2.461,12.0,2,0.0,0.5
4,1.0,AB,1.343,13.0,0,1.0,0.5
4,1.0,EF,1.284,13.0,2,0.0,0.5
4,0.0,CD,1.652,13.0,1,0.0,0.5
4,0.0,AB,1.828,14.0,0,0.0,0.5
4,1.0,EF,1.447,14.0,2,1.0,0.5
4,1.0,CD,2.44,14.0,1,1.0,0.5
4,0.0,EF,1.202,15.0,2,1.0,0.5
4,0.0,AB,1.188,15.0,0,0.0,0.5
4,1.0,CD,1.4,15.0,1,1.0,0.5
4,1.0,AB,1.866,16.0,0,1.0,0.5
4,1.0,CD,1.787,16.0,1,0.0,0.5
4,0.0,EF,1.534,16.0,2,0.0,0.5
4,0.0,EF,1.188,17.0,2,0.0,0.5
4,0.0,CD,1.407,17.0,1,0.0,0.5
4,1.0,AB,1.146,17.0,0,1.0,0.5
4,1.0,AB,0.967,18.0,0,1.0,0.5
4,0.0,EF,2.979,18.0,2,1.0,0.5
4,1.0,CD,1.431,18.0,1,0.0,0.5
4,0.0,AB,1.769,19.0,0,0.0,0.5
4,1.0,CD,2.173,19.0,1,1.0,0.5
4,0.0,EF,2.993,19.0,2,1.0,0.5
4,1.0,CD,0.662,20.0,1,0.0,0.5
4,0.0,EF,1.382,20.0,2,0.0,0.5
4,1.0,AB,1.65,20.0,0,1.0,0.5
4,0.0,EF,1.251,21.0,2,0.0,0.5
4,0.0,AB,1.596,21.0,0,0.0,0.5
4,1.0,CD,1.119,21.0,1,1.0,0.5
4,1.0,CD,4.333,22.0,1,0.0,0.5
4,1.0,AB,1.908,22.0,0,1.0,0.5
4,1.0,EF,1.49,22.0,2,0.0,0.5
4,0.0,AB,1.538,23.0,0,0.0,0.5
4,1.0,CD,1.767,23.0,1,1.0,0.5
4,0.0,EF,2.89,23.0,2,1.0,0.5
4,1.0,CD,1.619,24.0,1,1.0,0.5
4,0.0,EF,1.516,24.0,2,0.0,0.5
4,1.0,AB,2.755,24.0,0,1.0,0.5
4,0.0,EF,0.776,25.0,2,0.0,0.5
4,1.0,AB,1.148,25.0,0,1.0,0.5
4,1.0,CD,0.777,25.0,1,0.0,0.5
4,1.0,AB,1.213,26.0,0,1.0,0.5
4,1.0,CD,0.759,26.0,1,0.0,0.5
4,0.0,EF,1.492,26.0,2,1.0,0.5
4,0.0,CD,1.107,27.0,1,0.0,0.5
4,0.0,AB,1.051,27.0,0,1.0,0.5
4,0.0,EF,1.172,27.0,2,1.0,0.5
4,0.0,CD,1.759,28.0,1,0.0,0.5
4,0.0,EF,2.011,28.0,2,0.0,0.5
4,0.0,AB,2.663,28.0,0,0.0,0.5
4,0.0,CD,1.136,29.0,1,0.0,0.5
4,0.0,AB,1.397,29.0,0,0.0,0.5
4,0.0,EF,1.016,29.0,2,0.0,0.5
4,0.0,EF,2.155,30.0,2,0.0,0.5
4,1.0,CD,1.367,30.0,1,1.0,0.5
4,1.0,AB,1.164,30.0,0,1.0,0.5
4,1.0,AB,0.904,31.0,0,0.0,0.5
4,1.0,CD,3.711,31.0,1,1.0,0.5
4,0.0,EF,1.014,31.0,2,1.0,0.5
4,1.0,AB,0.961,32.0,0,1.0,0.5
4,1.0,CD,1.293,32.0,1,0.0,0.5
4,0.0,EF,1.309,32.0,2,1.0,0.5
4,1.0,CD,1.683,33.0,1,0.0,0.5
4,1.0,AB,2.363,33.0,0,0.0,0.5
4,0.0,EF,0.784,33.0,2,1.0,0.5
4,0.0,AB,1.347,34.0,0,1.0,0.5
4,0.0,EF,0.832,34.0,2,1.0,0.5
4,0.0,CD,0.706,34.0,1,0.0,0.5
4,1.0,CD,1.376,35.0,1,1.0,0.5
4,0.0,AB,1.869,35.0,0,0.0,0.5
4,0.0,EF,1.3,35.0,2,1.0,0.5
4,0.0,AB,2.084,36.0,0,0.0,0.5
4,1.0,CD,1.827,36.0,1,0.0,0.5
4,0.0,EF,1.669,36.0,2,0.0,0.5
4,1.0,CD,1.301,37.0,1,1.0,0.5
4,1.0,AB,3.379,37.0,0,0.0,0.5
4,0.0,EF,1.232,37.0,2,1.0,0.5
4,0.0,AB,1.937,38.0,0,0.0,0.5
4,0.0,EF,0.959,38.0,2,1.0,0.5
4,1.0,CD,1.555,38.0,1,0.0,0.5
4,0.0,AB,1.489,39.0,0,0.0,0.5
4,0.0,EF,0.992,39.0,2,0.0,0.5
4,0.0,CD,1.171,39.0,1,0.0,0.5
4,0.0,AB,2.887,40.0,0,0.0,0.5
4,1.0,EF,1.207,40.0,2,1.0,0.5
4,0.0,CD,1.921,40.0,1,1.0,0.5
4,0.0,EF,1.284,41.0,2,1.0,0.5
4,0.0,AB,1.147,41.0,0,0.0,0.5
4,0.0,CD,2.48,41.0,1,1.0,0.5
4,0.0,CD,0.737,42.0,1,0.0,0.5
4,1.0,AB,1.533,42.0,0,1.0,0.5
4,0.0,EF,1.979,42.0,2,0.0,0.5
4,1.0,EF,1.551,43.0,2,0.0,0.5
4,1.0,AB,4.811,43.0,0,0.0,0.5
4,0.0,CD,0.936,43.0,1,1.0,0.5
4,1.0,EF,0.949,44.0,2,1.0,0.5
4,1.0,AB,1.273,44.0,0,1.0,0.5
4,0.0,CD,2.281,44.0,1,1.0,0.5
4,1.0,AB,1.057,45.0,0,1.0,0.5
4,1.0,EF,1.162,45.0,2,1.0,0.5
4,0.0,CD,1.046,45.0,1,1.0,0.5
4,0.0,CD,0.864,46.0,1,0.0,0.5
4,0.0,AB,2.824,46.0,0,0.0,0.5
4,1.0,EF,0.827,46.0,2,1.0,0.5
4,0.0,AB,1.589,47.0,0,0.0,0.5
4,1.0,EF,1.017,47.0,2,1.0,0.5
4,0.0,CD,1.082,47.0,1,0.0,0.5
4,1.0,EF,1.034,48.0,2,0.0,0.5
4,0.0,AB,0.971,48.0,0,0.0,0.5
4,1.0,CD,1.079,48.0,1,1.0,0.5
4,0.0,AB,1.655,49.0,0,0.0,0.5
4,1.0,CD,0.936,49.0,1,1.0,0.5
4,0.0,EF,0.805,49.0,2,1.0,0.5
4,0.0,EF,0.848,50.0,2,0.0,0.5
4,1.0,CD,2.112,50.0,1,1.0,0.5
4,0.0,AB,1.0,50.0,0,0.0,0.5
4,0.0,EF,1.146,51.0,2,1.0,0.5
4,1.0,AB,0.728,51.0,0,1.0,0.5
4,1.0,CD,1.054,51.0,1,1.0,0.5
4,1.0,CD,1.046,52.0,1,1.0,0.5
4,0.0,EF,1.392,52.0,2,0.0,0.5
4,0.0,AB,0.963,52.0,0,1.0,0.5
4,0.0,CD,0.872,53.0,1,0.0,0.5
4,1.0,EF,1.679,53.0,2,0.0,0.5
4,1.0,AB,0.976,53.0,0,0.0,0.5
4,0.0,AB,0.731,54.0,0,0.0,0.5
4,1.0,EF,1.202,54.0,2,1.0,0.5
4,0.0,CD,3.124,54.0,1,1.0,0.5
4,1.0,EF,2.347,55.0,2,1.0,0.5
4,1.0,AB,1.192,55.0,0,0.0,0.5
4,0.0,CD,2.315,55.0,1,0.0,0.5
4,1.0,EF,0.874,56.0,2,1.0,0.5
4,0.0,AB,1.273,56.0,0,0.0,0.5
4,1.0,CD,2.066,56.0,1,1.0,0.5
4,1.0,CD,1.003,57.0,1,0.0,0.5
4,0.0,EF,0.941,57.0,2,1.0,0.5
4,1.0,AB,0.763,57.0,0,0.0,0.5
4,1.0,CD,1.135,58.0,1,0.0,0.5
4,0.0,EF,1.46,58.0,2,0.0,0.5
4,0.0,AB,3.709,58.0,0,0.0,0.5
4,0.0,CD,1.02,59.0,1,1.0,0.5
4,0.0,EF,0.974,59.0,2,1.0,0.5
4,1.0,AB,1.321,59.0,0,1.0,0.5
4,0.0,AB,1.368,60.0,0,1.0,0.5
4,0.0,EF,1.668,60.0,2,1.0,0.5
4,0.0,CD,1.628,60.0,1,1.0,0.5
4,1.0,AB,2.631,61.0,0,1.0,0.5
4,0.0,CD,1.313,61.0,1,1.0,0.5
4,0.0,EF,0.816,61.0,2,0.0,0.5
4,1.0,AB,1.306,62.0,0,1.0,0.5
4,0.0,CD,2.632,62.0,1,0.0,0.5
4,1.0,EF,0.69,62.0,2,0.0,0.5
4,0.0,CD,1.441,63.0,1,0.0,0.5
4,1.0,EF,2.098,63.0,2,1.0,0.5
4,1.0,AB,0.921,63.0,0,1.0,0.5
4,1.0,CD,1.815,64.0,1,0.0,0.5
4,1.0,EF,2.21,64.0,2,0.0,0.5
4,1.0,AB,2.22,64.0,0,1.0,0.5
4,1.0,AB,0.847,65.0,0,1.0,0.5
4,1.0,EF,1.08,65.0,2,1.0,0.5
4,0.0,CD,0.912,65.0,1,0.0,0.5
4,1.0,EF,1.518,66.0,2,1.0,0.5
4,1.0,AB,1.045,66.0,0,1.0,0.5
4,1.0,CD,1.351,66.0,1,1.0,0.5
4,1.0,CD,1.291,67.0,1,1.0,0.5
4,1.0,EF,0.963,67.0,2,1.0,0.5
4,1.0,AB,1.183,67.0,0,1.0,0.5
4,1.0,CD,1.867,68.0,1,0.0,0.5
4,0.0,AB,1.842,68.0,0,0.0,0.5
4,1.0,EF,1.579,68.0,2,1.0,0.5
4,1.0,CD,1.568,69.0,1,0.0,0.5
4,1.0,EF,1.684,69.0,2,0.0,0.5
4,1.0,AB,1.484,69.0,0,1.0,0.5
4,1.0,AB,1.075,70.0,0,1.0,0.5
4,1.0,CD,1.379,70.0,1,0.0,0.5
4,1.0,EF,1.159,70.0,2,1.0,0.5
4,0.0,CD,1.62,71.0,1,1.0,0.5
4,1.0,EF,0.685,71.0,2,1.0,0.5
4,1.0,AB,1.037,71.0,0,1.0,0.5
4,1.0,AB,0.935,72.0,0,0.0,0.5
4,0.0,CD,1.42,72.0,1,1.0,0.5
4,1.0,EF,1.526,72.0,2,1.0,0.5
4,1.0,EF,1.204,73.0,2,0.0,0.5
4,0.0,AB,1.399,73.0,0,0.0,0.5
4,0.0,CD,1.225,73.0,1,0.0,0.5
4,1.0,EF,1.036,74.0,2,1.0,0.5
4,1.0,CD,3.012,74.0,1,1.0,0.5
4,1.0,AB,1.735,74.0,0,1.0,0.5
4,1.0,AB,1.285,75.0,0,0.0,0.5
4,1.0,CD,1.436,75.0,1,0.0,0.5
4,1.0,EF,1.486,75.0,2,0.0,0.5
4,0.0,CD,1.109,76.0,1,0.0,0.5
4,1.0,AB,1.1,76.0,0,1.0,0.5
4,1.0,EF,1.594,76.0,2,0.0,0.5
4,0.0,EF,1.014,77.0,2,0.0,0.5
4,1.0,AB,0.905,77.0,0,1.0,0.5
4,1.0,CD,1.759,77.0,1,1.0,0.5
4,1.0,CD,1.021,78.0,1,0.0,0.5
4,0.0,AB,1.638,78.0,0,1.0,0.5
4,0.0,EF,1.312,78.0,2,0.0,0.5
4,0.0,CD,1.198,79.0,1,1.0,0.5
4,0.0,EF,1.177,79.0,2,0.0,0.5
4,1.0,AB,1.013,79.0,0,1.0,0.5
4,0.0,AB,1.12,80.0,0,0.0,0.5
4,0.0,CD,1.174,80.0,1,1.0,0.5
4,1.0,EF,1.186,80.0,2,1.0,0.5
4,0.0,EF,0.933,81.0,2,1.0,0.5
4,0.0,CD,1.626,81.0,1,1.0,0.5
4,1.0,AB,2.429,81.0,0,1.0,0.5
4,0.0,EF,0.862,82.0,2,1.0,0.5
4,1.0,AB,1.808,82.0,0,1.0,0.5
4,0.0,CD,0.818,82.0,1,0.0,0.5
4,1.0,AB,1.348,83.0,0,0.0,0.5
4,0.0,EF,1.513,83.0,2,0.0,0.5
4,1.0,CD,1.312,83.0,1,0.0,0.5
4,0.0,EF,1.03,84.0,2,0.0,0.5
4,1.0,CD,1.904,84.0,1,0.0,0.5
4,0.0,AB,1.103,84.0,0,0.0,0.5
4,0.0,EF,0.454,85.0,2,1.0,0.5
4,1.0,AB,1.582,85.0,0,1.0,0.5
4,0.0,CD,0.602,85.0,1,0.0,0.5
4,1.0,EF,0.853,86.0,2,0.0,0.5
4,1.0,CD,0.917,86.0,1,0.0,0.5
4,0.0,AB,0.835,86.0,0,0.0,0.5
4,0.0,CD,0.812,87.0,1,1.0,0.5
4,1.0,AB,1.023,87.0,0,1.0,0.5
4,0.0,EF,1.401,87.0,2,0.0,0.5
4,1.0,AB,0.684,88.0,0,1.0,0.5
4,0.0,CD,0.899,88.0,1,0.0,0.5
4,0.0,EF,0.762,88.0,2,1.0,0.5
4,0.0,CD,0.903,89.0,1,1.0,0.5
4,1.0,AB,0.717,89.0,0,1.0,0.5
4,0.0,EF,0.619,89.0,2,0.0,0.5
4,1.0,AB,1.685,90.0,0,0.0,0.5
4,0.0,CD,0.684,90.0,1,0.0,0.5
4,0.0,EF,2.027,90.0,2,0.0,0.5
4,1.0,AB,0.758,91.0,0,1.0,0.5
4,0.0,CD,1.042,91.0,1,0.0,0.5
4,0.0,EF,1.1,91.0,2,1.0,0.5
4,0.0,CD,0.643,92.0,1,0.0,0.5
4,0.0,EF,0.907,92.0,2,0.0,0.5
4,1.0,AB,0.954,92.0,0,1.0,0.5
4,0.0,EF,0.759,93.0,2,1.0,0.5
4,0.0,CD,0.844,93.0,1,0.0,0.5
4,1.0,AB,2.5,93.0,0,1.0,0.5
4,0.0,CD,1.436,94.0,1,1.0,0.5
4,1.0,AB,0.861,94.0,0,1.0,0.5
4,0.0,EF,0.998,94.0,2,0.0,0.5
4,1.0,AB,0.689,95.0,0,1.0,0.5
4,0.0,CD,2.024,95.0,1,0.0,0.5
4,0.0,EF,0.707,95.0,2,0.0,0.5
4,1.0,AB,0.721,96.0,0,0.0,0.5
4,0.0,CD,0.743,96.0,1,0.0,0.5
4,0.0,EF,1.556,96.0,2,1.0,0.5
4,0.0,EF,0.649,97.0,2,0.0,0.5
4,1.0,AB,1.513,97.0,0,0.0,0.5
4,1.0,CD,1.225,97.0,1,1.0,0.5
4,1.0,CD,1.226,98.0,1,1.0,0.5
4,0.0,AB,1.805,98.0,0,0.0,0.5
4,1.0,EF,2.015,98.0,2,1.0,0.5
4,1.0,EF,0.746,99.0,2,0.0,0.5
4,1.0,AB,1.135,99.0,0,0.0,0.5
4,0.0,CD,1.26,99.0,1,0.0,0.5
4,0.0,AB,0.797,100.0,0,0.0,0.5
4,0.0,CD,0.824,100.0,1,0.0,0.5
4,0.0,EF,0.746,100.0,2,0.0,0.5
4,0.0,EF,1.803,101.0,2,0.0,0.5
4,0.0,CD,0.783,101.0,1,0.0,0.5
4,1.0,AB,1.425,101.0,0,0.0,0.5
4,0.0,EF,0.732,102.0,2,0.0,0.5
4,0.0,AB,1.073,102.0,0,0.0,0.5
4,0.0,CD,1.377,102.0,1,0.0,0.5
4,0.0,EF,0.613,103.0,2,0.0,0.5
4,0.0,AB,0.744,103.0,0,0.0,0.5
4,1.0,CD,1.101,103.0,1,1.0,0.5
4,1.0,AB,1.772,104.0,0,1.0,0.5
4,1.0,EF,1.015,104.0,2,1.0,0.5
4,1.0,CD,0.818,104.0,1,1.0,0.5
4,0.0,EF,0.82,105.0,2,0.0,0.5
4,1.0,CD,1.925,105.0,1,1.0,0.5
4,1.0,AB,1.276,105.0,0,1.0,0.5
4,1.0,EF,1.108,106.0,2,1.0,0.5
4,1.0,CD,1.083,106.0,1,1.0,0.5
4,1.0,AB,1.418,106.0,0,0.0,0.5
4,1.0,CD,1.116,107.0,1,0.0,0.5
4,1.0,AB,0.874,107.0,0,1.0,0.5
4,1.0,EF,0.93,107.0,2,1.0,0.5
4,1.0,EF,1.136,108.0,2,1.0,0.5
4,1.0,CD,0.573,108.0,1,0.0,0.5
4,1.0,AB,0.546,108.0,0,1.0,0.5
4,1.0,CD,1.262,109.0,1,1.0,0.5
4,1.0,EF,1.408,109.0,2,1.0,0.5
4,1.0,AB,2.45,109.0,0,1.0,0.5
4,1.0,EF,0.715,110.0,2,1.0,0.5
4,1.0,AB,1.417,110.0,0,1.0,0.5
4,1.0,CD,2.034,110.0,1,1.0,0.5
4,1.0,EF,3.524,111.0,2,0.0,0.5
4,1.0,AB,0.723,111.0,0,1.0,0.5
4,1.0,CD,1.033,111.0,1,1.0,0.5
4,1.0,AB,1.018,112.0,0,1.0,0.5
4,1.0,CD,0.828,112.0,1,0.0,0.5
4,1.0,EF,0.703,112.0,2,1.0,0.5
4,1.0,EF,0.733,113.0,2,1.0,0.5
4,1.0,CD,1.034,113.0,1,1.0,0.5
4,1.0,AB,0.779,113.0,0,0.0,0.5
4,1.0,AB,1.055,114.0,0,1.0,0.5
4,1.0,EF,1.144,114.0,2,0.0,0.5
4,1.0,CD,1.773,114.0,1,1.0,0.5
4,1.0,CD,1.201,115.0,1,1.0,0.5
4,1.0,EF,0.812,115.0,2,1.0,0.5
4,1.0,AB,1.734,115.0,0,1.0,0.5
4,1.0,EF,1.468,116.0,2,1.0,0.5
4,1.0,CD,2.292,116.0,1,1.0,0.5
4,1.0,AB,0.684,116.0,0,1.0,0.5
4,1.0,AB,0.899,117.0,0,1.0,0.5
4,1.0,CD,1.554,117.0,1,1.0,0.5
4,1.0,EF,1.574,117.0,2,1.0,0.5
4,1.0,AB,0.963,118.0,0,1.0,0.5
4,1.0,EF,0.991,118.0,2,1.0,0.5
4,1.0,CD,1.499,118.0,1,1.0,0.5
4,1.0,EF,0.73,119.0,2,0.0,0.5
4,1.0,AB,0.719,119.0,0,1.0,0.5
4,1.0,CD,1.35,119.0,1,1.0,0.5
4,1.0,CD,1.282,120.0,1,1.0,0.5
4,1.0,AB,0.946,120.0,0,1.0,0.5
4,1.0,EF,0.782,120.0,2,0.0,0.5
5,1.0,AB,1.755,1.0,0,1.0,0.5
5,0.0,CD,1.127,1.0,1,0.0,0.5
5,0.0,EF,0.902,1.0,2,1.0,0.5
5,0.0,CD,0.844,2.0,1,1.0,0.5
5,0.0,EF,0.901,2.0,2,1.0,0.5
5,0.0,AB,0.884,2.0,0,0.0,0.5
5,0.0,CD,0.891,3.0,1,0.0,0.5
5,1.0,AB,1.603,3.0,0,1.0,0.5
5,0.0,EF,1.405,3.0,2,0.0,0.5
5,1.0,AB,1.328,4.0,0,1.0,0.5
5,0.0,EF,0.87,4.0,2,0.0,0.5
5,0.0,CD,0.83,4.0,1,0.0,0.5
5,0.0,CD,1.0,5.0,1,0.0,0.5
5,1.0,AB,0.963,5.0,0,0.0,0.5
5,0.0,EF,1.335,5.0,2,0.0,0.5
5,0.0,EF,0.869,6.0,2,1.0,0.5
5,0.0,CD,0.924,6.0,1,1.0,0.5
5,1.0,AB,1.331,6.0,0,1.0,0.5
5,0.0,CD,0.873,7.0,1,0.0,0.5
5,1.0,AB,1.073,7.0,0,1.0,0.5
5,1.0,EF,0.937,7.0,2,1.0,0.5
5,0.0,CD,0.742,8.0,1,1.0,0.5
5,1.0,AB,0.867,8.0,0,1.0,0.5
5,0.0,EF,0.651,8.0,2,0.0,0.5
5,0.0,CD,1.028,9.0,1,1.0,0.5
5,0.0,EF,1.046,9.0,2,0.0,0.5
5,1.0,AB,0.951,9.0,0,1.0,0.5
5,0.0,CD,0.892,10.0,1,1.0,0.5
5,0.0,AB,2.395,10.0,0,0.0,0.5
5,0.0,EF,0.751,10.0,2,0.0,0.5
5,0.0,CD,0.779,11.0,1,0.0,0.5
5,0.0,EF,1.167,11.0,2,1.0,0.5
5,1.0,AB,0.987,11.0,0,1.0,0.5
5,1.0,AB,1.599,12.0,0,1.0,0.5
5,0.0,EF,0.617,12.0,2,0.0,0.5
5,0.0,CD,0.867,12.0,1,0.0,0.5
5,1.0,EF,1.092,13.0,2,0.0,0.5
5,1.0,AB,1.114,13.0,0,0.0,0.5
5,0.0,CD,1.058,13.0,1,1.0,0.5
5,0.0,CD,0.682,14.0,1,0.0,0.5
5,1.0,AB,1.097,14.0,0,1.0,0.5
5,1.0,EF,1.544,14.0,2,1.0,0.5
5,0.0,EF,1.406,15.0,2,1.0,0.5
5,0.0,CD,0.96,15.0,1,0.0,0.5
5,1.0,AB,1.213,15.0,0,1.0,0.5
5,0.0,CD,0.688,16.0,1,1.0,0.5
5,1.0,AB,0.967,16.0,0,1.0,0.5
5,0.0,EF,0.82,16.0,2,0.0,0.5
5,1.0,AB,0.973,17.0,0,0.0,0.5
5,0.0,EF,1.194,17.0,2,0.0,0.5
5,0.0,CD,1.996,17.0,1,0.0,0.5
5,0.0,CD,0.592,18.0,1,1.0,0.5
5,0.0,EF,0.635,18.0,2,0.0,0.5
5,1.0,AB,0.909,18.0,0,1.0,0.5
5,1.0,AB,0.939,19.0,0,1.0,0.5
5,1.0,EF,0.969,19.0,2,1.0,0.5
5,1.0,CD,1.284,19.0,1,0.0,0.5
5,0.0,EF,1.34,20.0,2,1.0,0.5
5,1.0,AB,0.882,20.0,0,1.0,0.5
5,0.0,CD,0.577,20.0,1,1.0,0.5
5,0.0,CD,0.689,21.0,1,1.0,0.5
5,0.0,EF,0.672,21.0,2,0.0,0.5
5,1.0,AB,0.873,21.0,0,0.0,0.5
5,1.0,AB,0.728,22.0,0,1.0,0.5
5,0.0,EF,1.367,22.0,2,1.0,0.5
5,0.0,CD,1.37,22.0,1,0.0,0.5
5,1.0,AB,0.999,23.0,0,1.0,0.5
5,1.0,CD,1.105,23.0,1,0.0,0.5
5,0.0,EF,0.84,23.0,2,0.0,0.5
5,0.0,CD,1.089,24.0,1,1.0,0.5
5,0.0,EF,1.328,24.0,2,0.0,0.5
5,1.0,AB,1.542,24.0,0,1.0,0.5
5,1.0,EF,0.676,25.0,2,0.0,0.5
5,1.0,CD,0.747,25.0,1,1.0,0.5
5,1.0,AB,1.897,25.0,0,1.0,0.5
5,1.0,EF,1.009,26.0,2,1.0,0.5
5,1.0,AB,0.755,26.0,0,0.0,0.5
5,1.0,CD,0.944,26.0,1,1.0,0.5
5,0.0,CD,1.101,27.0,1,1.0,0.5
5,0.0,EF,0.884,27.0,2,0.0,0.5
5,1.0,AB,0.891,27.0,0,0.0,0.5
5,0.0,CD,0.986,28.0,1,0.0,0.5
5,0.0,EF,1.253,28.0,2,0.0,0.5
5,1.0,AB,0.902,28.0,0,1.0,0.5
5,1.0,AB,0.814,29.0,0,1.0,0.5
5,0.0,CD,0.88,29.0,1,0.0,0.5
5,0.0,EF,0.784,29.0,2,0.0,0.5
5,0.0,EF,1.523,30.0,2,0.0,0.5
5,1.0,AB,0.737,30.0,0,1.0,0.5
5,1.0,CD,1.278,30.0,1,0.0,0.5
5,1.0,AB,0.678,31.0,0,1.0,0.5
5,1.0,EF,0.982,31.0,2,0.0,0.5
5,0.0,CD,0.802,31.0,1,0.0,0.5
5,0.0,CD,0.629,32.0,1,0.0,0.5
5,0.0,EF,0.918,32.0,2,0.0,0.5
5,1.0,AB,0.78,32.0,0,1.0,0.5
5,1.0,AB,0.736,33.0,0,0.0,0.5
5,0.0,EF,0.613,33.0,2,0.0,0.5
5,1.0,CD,0.792,33.0,1,0.0,0.5
5,1.0,EF,2.323,34.0,2,1.0,0.5
5,1.0,CD,1.113,34.0,1,1.0,0.5
5,1.0,AB,0.832,34.0,0,1.0,0.5
5,1.0,EF,1.194,35.0,2,1.0,0.5
5,1.0,CD,0.733,35.0,1,1.0,0.5
5,1.0,AB,0.938,35.0,0,1.0,0.5
5,0.0,EF,2.071,36.0,2,1.0,0.5
5,1.0,AB,1.44,36.0,0,1.0,0.5
5,1.0,CD,1.057,36.0,1,0.0,0.5
5,1.0,EF,1.554,37.0,2,0.0,0.5
5,1.0,AB,1.062,37.0,0,1.0,0.5
5,1.0,CD,0.759,37.0,1,1.0,0.5
5,1.0,EF,1.163,38.0,2,1.0,0.5
5,1.0,CD,1.144,38.0,1,1.0,0.5
5,1.0,AB,1.069,38.0,0,1.0,0.5
5,1.0,EF,0.998,39.0,2,0.0,0.5
5,1.0,CD,0.849,39.0,1,1.0,0.5
5,1.0,AB,0.714,39.0,0,1.0,0.5
5,1.0,CD,1.001,40.0,1,0.0,0.5
5,1.0,EF,1.387,40.0,2,1.0,0.5
5,1.0,AB,0.807,40.0,0,0.0,0.5
6,0.0,EF,3.501,1.0,2,0.0,0.5
6,1.0,AB,2.965,1.0,0,1.0,0.5
6,0.0,CD,1.601,1.0,1,0.0,0.5
6,1.0,EF,2.844,2.0,2,1.0,0.5
6,1.0,CD,5.181,2.0,1,1.0,0.5
6,1.0,AB,2.121,2.0,0,1.0,0.5
6,1.0,EF,1.703,3.0,2,0.0,0.5
6,1.0,CD,1.831,3.0,1,1.0,0.5
6,1.0,AB,1.12,3.0,0,1.0,0.5
6,1.0,AB,1.207,4.0,0,0.0,0.5
6,1.0,CD,1.793,4.0,1,1.0,0.5
6,1.0,EF,1.493,4.0,2,1.0,0.5
6,1.0,EF,1.9,5.0,2,1.0,0.5
6,1.0,CD,1.795,5.0,1,1.0,0.5
6,1.0,AB,1.71,5.0,0,0.0,0.5
6,1.0,CD,3.206,6.0,1,1.0,0.5
6,1.0,EF,1.328,6.0,2,0.0,0.5
6,1.0,AB,1.399,6.0,0,1.0,0.5
6,0.0,AB,1.233,7.0,0,0.0,0.5
6,1.0,EF,1.795,7.0,2,0.0,0.5
6,0.0,CD,1.942,7.0,1,0.0,0.5
6,1.0,EF,1.555,8.0,2,1.0,0.5
6,1.0,CD,2.368,8.0,1,0.0,0.5
6,1.0,AB,1.628,8.0,0,1.0,0.5
6,0.0,EF,1.527,9.0,2,0.0,0.5
6,0.0,AB,2.308,9.0,0,0.0,0.5
6,0.0,CD,3.811,9.0,1,0.0,0.5
6,0.0,AB,2.287,10.0,0,1.0,0.5
6,1.0,CD,4.118,10.0,1,0.0,0.5
6,1.0,EF,1.196,10.0,2,1.0,0.5
6,1.0,CD,1.776,11.0,1,1.0,0.5
6,0.0,AB,1.204,11.0,0,0.0,0.5
6,1.0,EF,1.559,11.0,2,0.0,0.5
6,1.0,AB,1.435,12.0,0,1.0,0.5
6,1.0,EF,1.677,12.0,2,1.0,0.5
6,0.0,CD,2.581,12.0,1,0.0,0.5
6,1.0,EF,0.777,13.0,2,0.0,0.5
6,0.0,CD,2.749,13.0,1,0.0,0.5
6,1.0,AB,4.489,13.0,0,1.0,0.5
6,0.0,CD,3.754,14.0,1,0.0,0.5
6,1.0,EF,5.063,14.0,2,1.0,0.5
6,0.0,AB,1.552,14.0,0,1.0,0.5
6,1.0,EF,1.134,15.0,2,1.0,0.5
6,0.0,CD,1.642,15.0,1,0.0,0.5
6,1.0,AB,1.844,15.0,0,1.0,0.5
6,0.0,CD,1.253,16.0,1,0.0,0.5
6,0.0,AB,1.559,16.0,0,1.0,0.5
6,1.0,EF,0.995,16.0,2,1.0,0.5
6,1.0,CD,2.55,17.0,1,1.0,0.5
6,1.0,EF,0.939,17.0,2,0.0,0.5
6,1.0,AB,3.056,17.0,0,1.0,0.5
6,1.0,CD,2.01,18.0,1,1.0,0.5
6,0.0,AB,2.524,18.0,0,0.0,0.5
6,1.0,EF,1.395,18.0,2,0.0,0.5
6,1.0,AB,2.318,19.0,0,1.0,0.5
6,1.0,CD,1.852,19.0,1,1.0,0.5
6,1.0,EF,0.877,19.0,2,1.0,0.5
6,0.0,AB,1.326,20.0,0,0.0,0.5
6,1.0,CD,2.947,20.0,1,0.0,0.5
6,1.0,EF,1.169,20.0,2,0.0,0.5
6,1.0,CD,5.603,21.0,1,1.0,0.5
6,1.0,AB,2.624,21.0,0,0.0,0.5
6,1.0,EF,2.674,21.0,2,1.0,0.5
6,1.0,EF,1.234,22.0,2,0.0,0.5
6,1.0,CD,2.867,22.0,1,0.0,0.5
6,1.0,AB,1.435,22.0,0,1.0,0.5
6,1.0,CD,0.629,23.0,1,1.0,0.5
6,0.0,AB,0.719,23.0,0,1.0,0.5
6,1.0,EF,0.709,23.0,2,0.0,0.5
6,0.0,AB,0.532,24.0,0,1.0,0.5
6,1.0,EF,0.673,24.0,2,1.0,0.5
6,0.0,CD,0.569,24.0,1,0.0,0.5
6,0.0,CD,1.484,25.0,1,0.0,0.5
6,1.0,AB,1.612,25.0,0,1.0,0.5
6,1.0,EF,1.406,25.0,2,1.0,0.5
6,0.0,EF,0.626,26.0,2,0.0,0.5
6,0.0,AB,2.723,26.0,0,0.0,0.5
6,1.0,CD,1.938,26.0,1,1.0,0.5
6,1.0,AB,3.783,27.0,0,0.0,0.5
6,1.0,EF,1.219,27.0,2,1.0,0.5
6,0.0,CD,2.077,27.0,1,1.0,0.5
6,0.0,EF,1.357,28.0,2,0.0,0.5
6,1.0,CD,4.082,28.0,1,0.0,0.5
6,1.0,AB,4.394,28.0,0,0.0,0.5
6,1.0,CD,4.742,29.0,1,1.0,0.5
6,1.0,EF,1.7,29.0,2,1.0,0.5
6,0.0,AB,3.163,29.0,0,0.0,0.5
6,1.0,EF,5.16,30.0,2,0.0,0.5
6,1.0,AB,2.229,30.0,0,1.0,0.5
6,1.0,CD,2.463,30.0,1,1.0,0.5
6,0.0,EF,2.113,31.0,2,1.0,0.5
6,1.0,AB,2.375,31.0,0,1.0,0.5
6,1.0,CD,1.444,31.0,1,1.0,0.5
6,1.0,EF,2.757,32.0,2,0.0,0.5
6,1.0,CD,2.353,32.0,1,1.0,0.5
6,0.0,AB,3.639,32.0,0,1.0,0.5
6,0.0,AB,1.737,33.0,0,0.0,0.5
6,1.0,EF,2.662,33.0,2,1.0,0.5
6,1.0,CD,2.023,33.0,1,1.0,0.5
6,0.0,EF,1.777,34.0,2,0.0,0.5
6,0.0,AB,1.518,34.0,0,0.0,0.5
6,1.0,CD,1.787,34.0,1,0.0,0.5
6,0.0,AB,5.302,35.0,0,0.0,0.5
6,1.0,EF,2.167,35.0,2,1.0,0.5
6,1.0,CD,2.546,35.0,1,0.0,0.5
6,1.0,CD,1.4,36.0,1,1.0,0.5
6,0.0,AB,4.163,36.0,0,0.0,0.5
6,1.0,EF,2.264,36.0,2,1.0,0.5
6,1.0,EF,0.994,37.0,2,0.0,0.5
6,1.0,AB,1.492,37.0,0,1.0,0.5
6,1.0,CD,1.476,37.0,1,1.0,0.5
6,1.0,CD,0.772,38.0,1,1.0,0.5
6,0.0,EF,1.652,38.0,2,1.0,0.5
6,0.0,EF,1.452,39.0,2,1.0,0.5
6,1.0,CD,1.82,39.0,1,1.0,0.5
6,0.0,AB,1.223,39.0,0,0.0,0.5
6,1.0,CD,1.761,40.0,1,0.0,0.5
6,0.0,AB,1.51,40.0,0,1.0,0.5
6,0.0,EF,1.796,40.0,2,0.0,0.5
6,1.0,CD,1.683,41.0,1,1.0,0.5
6,1.0,EF,1.618,41.0,2,1.0,0.5
6,1.0,AB,1.86,41.0,0,1.0,0.5
6,1.0,EF,1.301,42.0,2,1.0,0.5
6,1.0,AB,1.037,42.0,0,1.0,0.5
6,1.0,CD,0.693,42.0,1,0.0,0.5
6,1.0,AB,2.397,43.0,0,1.0,0.5
6,1.0,EF,1.776,43.0,2,1.0,0.5
6,1.0,CD,1.356,43.0,1,1.0,0.5
6,1.0,EF,1.313,44.0,2,0.0,0.5
6,1.0,AB,2.103,44.0,0,0.0,0.5
6,1.0,CD,1.935,44.0,1,1.0,0.5
6,1.0,AB,1.94,45.0,0,1.0,0.5
6,1.0,EF,2.354,45.0,2,0.0,0.5
6,1.0,CD,1.59,45.0,1,1.0,0.5
6,1.0,EF,1.282,46.0,2,1.0,0.5
6,1.0,AB,1.233,46.0,0,1.0,0.5
6,0.0,CD,1.259,46.0,1,0.0,0.5
6,1.0,CD,1.147,47.0,1,0.0,0.5
6,1.0,AB,0.825,47.0,0,0.0,0.5
6,1.0,EF,1.018,47.0,2,1.0,0.5
6,1.0,CD,1.973,48.0,1,1.0,0.5
6,1.0,AB,4.241,48.0,0,1.0,0.5
6,1.0,EF,1.01,48.0,2,1.0,0.5
6,1.0,EF,0.998,49.0,2,0.0,0.5
6,0.0,CD,1.617,49.0,1,0.0,0.5
6,1.0,AB,0.859,49.0,0,1.0,0.5
6,1.0,CD,1.14,50.0,1,0.0,0.5
6,1.0,AB,1.041,50.0,0,1.0,0.5
6,1.0,EF,1.027,50.0,2,1.0,0.5
6,1.0,AB,1.012,51.0,0,0.0,0.5
6,0.0,CD,1.039,51.0,1,0.0,0.5
6,1.0,EF,0.736,51.0,2,1.0,0.5
6,0.0,AB,0.774,52.0,0,0.0,0.5
6,1.0,CD,1.514,52.0,1,0.0,0.5
6,1.0,EF,1.112,52.0,2,1.0,0.5
6,1.0,EF,0.871,53.0,2,1.0,0.5
6,0.0,CD,1.975,53.0,1,0.0,0.5
6,0.0,AB,0.66,53.0,0,0.0,0.5
6,0.0,CD,2.14,54.0,1,0.0,0.5
6,1.0,AB,0.714,54.0,0,1.0,0.5
6,1.0,EF,1.144,54.0,2,1.0,0.5
6,1.0,EF,0.605,55.0,2,1.0,0.5
6,0.0,AB,0.927,55.0,0,0.0,0.5
6,1.0,CD,0.702,55.0,1,1.0,0.5
6,1.0,AB,0.844,56.0,0,1.0,0.5
6,1.0,EF,0.862,56.0,2,1.0,0.5
6,1.0,CD,0.975,56.0,1,1.0,0.5
6,1.0,CD,0.842,57.0,1,1.0,0.5
6,1.0,AB,0.716,57.0,0,1.0,0.5
6,1.0,EF,0.825,57.0,2,1.0,0.5
6,1.0,CD,0.604,58.0,1,0.0,0.5
6,1.0,AB,0.639,58.0,0,1.0,0.5
6,1.0,EF,0.639,58.0,2,0.0,0.5
6,1.0,AB,0.865,59.0,0,1.0,0.5
6,1.0,CD,0.937,59.0,1,0.0,0.5
6,1.0,EF,0.631,59.0,2,1.0,0.5
6,1.0,EF,0.92,60.0,2,1.0,0.5
6,1.0,CD,0.758,60.0,1,1.0,0.5
6,1.0,AB,0.763,60.0,0,1.0,0.5
8,0.0,EF,0.968,1.0,2,1.0,0.5
8,1.0,CD,0.9,1.0,1,1.0,0.5
8,1.0,AB,1.17,1.0,0,1.0,0.5
8,0.0,AB,1.311,2.0,0,0.0,0.5
8,0.0,EF,0.997,2.0,2,1.0,0.5
8,0.0,CD,1.017,2.0,1,0.0,0.5
8,0.0,EF,0.891,3.0,2,0.0,0.5
8,0.0,CD,0.93,3.0,1,1.0,0.5
8,1.0,AB,1.68,3.0,0,1.0,0.5
8,0.0,CD,1.064,4.0,1,1.0,0.5
8,0.0,EF,1.313,4.0,2,0.0,0.5
8,1.0,AB,1.111,4.0,0,1.0,0.5
8,1.0,AB,0.99,5.0,0,1.0,0.5
8,0.0,CD,1.041,5.0,1,0.0,0.5
8,0.0,EF,1.115,5.0,2,0.0,0.5
8,0.0,CD,1.041,6.0,1,1.0,0.5
8,0.0,EF,1.411,6.0,2,0.0,0.5
8,1.0,AB,1.021,6.0,0,1.0,0.5
8,1.0,AB,0.919,7.0,0,1.0,0.5
8,0.0,EF,1.374,7.0,2,1.0,0.5
8,1.0,CD,1.713,7.0,1,1.0,0.5
8,1.0,AB,0.968,8.0,0,1.0,0.5
8,0.0,EF,1.508,8.0,2,1.0,0.5
8,1.0,CD,1.267,8.0,1,1.0,0.5
8,1.0,CD,0.995,9.0,1,1.0,0.5
8,0.0,EF,0.855,9.0,2,1.0,0.5
8,1.0,AB,1.503,9.0,0,1.0,0.5
8,0.0,EF,1.334,10.0,2,1.0,0.5
8,1.0,AB,1.307,10.0,0,1.0,0.5
8,1.0,CD,1.074,10.0,1,0.0,0.5
8,1.0,AB,1.225,11.0,0,1.0,0.5
8,1.0,CD,1.012,11.0,1,0.0,0.5
8,0.0,EF,1.15,11.0,2,1.0,0.5
8,0.0,EF,1.179,12.0,2,0.0,0.5
8,1.0,CD,0.919,12.0,1,0.0,0.5
8,1.0,AB,2.189,12.0,0,0.0,0.5
8,0.0,EF,1.456,13.0,2,1.0,0.5
8,1.0,CD,1.458,13.0,1,0.0,0.5
8,1.0,AB,2.418,13.0,0,1.0,0.5
8,0.0,EF,1.885,14.0,2,1.0,0.5
8,1.0,AB,1.884,14.0,0,1.0,0.5
8,0.0,CD,3.267,14.0,1,0.0,0.5
8,1.0,AB,5.076,15.0,0,1.0,0.5
8,0.0,EF,3.069,15.0,2,0.0,0.5
8,1.0,CD,1.653,15.0,1,1.0,0.5
8,1.0,AB,2.19,16.0,0,1.0,0.5
8,0.0,EF,4.153,16.0,2,0.0,0.5
8,0.0,CD,4.486,16.0,1,1.0,0.5
8,1.0,AB,2.67,17.0,0,1.0,0.5
8,0.0,EF,3.918,17.0,2,0.0,0.5
8,1.0,CD,4.492,17.0,1,0.0,0.5
8,1.0,AB,4.621,18.0,0,1.0,0.5
8,0.0,EF,3.984,18.0,2,1.0,0.5
8,0.0,CD,5.196,18.0,1,1.0,0.5
8,0.0,EF,2.608,19.0,2,1.0,0.5
8,0.0,CD,2.786,19.0,1,1.0,0.5
8,1.0,AB,1.919,19.0,0,1.0,0.5
8,1.0,AB,1.892,20.0,0,1.0,0.5
8,0.0,CD,1.964,20.0,1,0.0,0.5
8,0.0,EF,5.337,20.0,2,1.0,0.5
8,0.0,EF,2.119,21.0,2,1.0,0.5
8,0.0,CD,2.069,21.0,1,0.0,0.5
8,1.0,AB,2.062,21.0,0,1.0,0.5
8,0.0,EF,1.502,22.0,2,0.0,0.5
8,1.0,CD,3.492,22.0,1,1.0,0.5
8,1.0,AB,2.149,22.0,0,1.0,0.5
8,1.0,AB,1.521,23.0,0,0.0,0.5
8,0.0,EF,4.511,23.0,2,0.0,0.5
8,1.0,CD,2.255,23.0,1,0.0,0.5
8,1.0,AB,2.296,24.0,0,1.0,0.5
8,1.0,EF,2.32,24.0,2,1.0,0.5
8,0.0,CD,3.198,24.0,1,0.0,0.5
8,1.0,AB,1.489,25.0,0,1.0,0.5
8,1.0,CD,3.152,25.0,1,0.0,0.5
8,0.0,EF,1.941,25.0,2,0.0,0.5
8,1.0,CD,2.306,26.0,1,0.0,0.5
8,0.0,EF,1.738,26.0,2,0.0,0.5
8,1.0,AB,1.975,26.0,0,0.0,0.5
8,0.0,CD,3.404,27.0,1,0.0,0.5
8,1.0,EF,4.694,27.0,2,1.0,0.5
8,1.0,AB,3.966,27.0,0,1.0,0.5
8,1.0,AB,1.491,28.0,0,1.0,0.5
8,1.0,EF,2.438,28.0,2,1.0,0.5
8,1.0,EF,2.767,29.0,2,0.0,0.5
8,1.0,AB,3.611,29.0,0,1.0,0.5
8,1.0,CD,0.951,29.0,1,1.0,0.5
8,1.0,AB,1.107,30.0,0,1.0,0.5
8,1.0,CD,1.875,30.0,1,1.0,0.5
8,1.0,EF,1.298,30.0,2,1.0,0.5
8,1.0,EF,1.202,31.0,2,0.0,0.5
8,1.0,AB,1.372,31.0,0,1.0,0.5
8,1.0,CD,3.216,31.0,1,0.0,0.5
8,1.0,EF,3.97,32.0,2,0.0,0.5
8,1.0,AB,1.311,32.0,0,1.0,0.5
8,1.0,CD,1.558,32.0,1,0.0,0.5
8,1.0,EF,3.986,33.0,2,1.0,0.5
8,1.0,AB,1.894,33.0,0,1.0,0.5
8,1.0,CD,4.445,33.0,1,1.0,0.5
8,1.0,EF,2.448,34.0,2,1.0,0.5
8,1.0,AB,1.016,34.0,0,1.0,0.5
8,1.0,CD,1.539,34.0,1,1.0,0.5
8,0.0,CD,2.424,35.0,1,0.0,0.5
8,0.0,EF,2.827,35.0,2,1.0,0.5
8,1.0,AB,1.549,35.0,0,1.0,0.5
8,1.0,AB,1.834,36.0,0,1.0,0.5
8,1.0,CD,1.107,36.0,1,1.0,0.5
8,0.0,EF,3.105,36.0,2,0.0,0.5
8,0.0,EF,1.193,37.0,2,1.0,0.5
8,1.0,AB,1.908,37.0,0,0.0,0.5
8,1.0,CD,2.819,37.0,1,0.0,0.5
8,1.0,AB,1.277,38.0,0,1.0,0.5
8,1.0,EF,1.462,38.0,2,1.0,0.5
8,1.0,CD,1.47,38.0,1,1.0,0.5
8,1.0,CD,1.67,39.0,1,0.0,0.5
8,0.0,EF,1.118,39.0,2,0.0,0.5
8,1.0,AB,1.037,39.0,0,1.0,0.5
8,1.0,AB,1.005,40.0,0,0.0,0.5
8,0.0,EF,1.104,40.0,2,0.0,0.5
8,1.0,CD,4.959,40.0,1,0.0,0.5
12,1.0,EF,2.065,1.0,2,1.0,0.5
12,0.0,CD,0.778,1.0,1,0.0,0.5
12,1.0,AB,1.021,1.0,0,1.0,0.5
12,0.0,CD,0.816,2.0,1,0.0,0.5
12,1.0,EF,0.673,2.0,2,1.0,0.5
12,1.0,AB,0.866,2.0,0,1.0,0.5
12,1.0,AB,0.521,3.0,0,1.0,0.5
12,1.0,CD,1.055,3.0,1,1.0,0.5
12,1.0,EF,1.008,3.0,2,0.0,0.5
12,1.0,EF,0.682,4.0,2,1.0,0.5
12,1.0,AB,0.73,4.0,0,0.0,0.5
12,0.0,CD,0.991,4.0,1,1.0,0.5
12,1.0,AB,0.523,5.0,0,1.0,0.5
12,0.0,CD,0.77,5.0,1,0.0,0.5
12,0.0,EF,0.805,5.0,2,0.0,0.5
12,1.0,EF,1.28,6.0,2,0.0,0.5
12,1.0,AB,0.871,6.0,0,1.0,0.5
12,0.0,CD,0.976,6.0,1,0.0,0.5
12,1.0,AB,0.763,7.0,0,1.0,0.5
12,1.0,EF,0.808,7.0,2,0.0,0.5
12,0.0,CD,0.746,7.0,1,0.0,0.5
12,1.0,AB,0.672,8.0,0,1.0,0.5
12,1.0,EF,1.528,8.0,2,0.0,0.5
12,1.0,CD,1.398,8.0,1,0.0,0.5
12,1.0,CD,1.81,9.0,1,1.0,0.5
12,0.0,EF,1.388,9.0,2,0.0,0.5
12,1.0,AB,0.528,9.0,0,0.0,0.5
12,0.0,EF,1.349,10.0,2,0.0,0.5
12,0.0,CD,1.067,10.0,1,0.0,0.5
12,1.0,AB,0.866,10.0,0,1.0,0.5
12,0.0,CD,2.042,11.0,1,0.0,0.5
12,1.0,EF,2.092,11.0,2,1.0,0.5
12,1.0,AB,1.116,11.0,0,1.0,0.5
12,0.0,CD,0.953,12.0,1,0.0,0.5
12,1.0,AB,0.878,12.0,0,0.0,0.5
12,1.0,EF,1.35,12.0,2,0.0,0.5
12,1.0,EF,1.163,13.0,2,1.0,0.5
12,1.0,CD,1.527,13.0,1,1.0,0.5
12,1.0,AB,0.942,13.0,0,1.0,0.5
12,1.0,EF,1.162,14.0,2,0.0,0.5
12,1.0,CD,1.84,14.0,1,1.0,0.5
12,1.0,AB,0.85,14.0,0,1.0,0.5
12,1.0,EF,1.33,15.0,2,1.0,0.5
12,1.0,CD,0.872,15.0,1,0.0,0.5
12,1.0,AB,0.856,15.0,0,1.0,0.5
12,1.0,CD,0.873,16.0,1,1.0,0.5
12,1.0,EF,1.368,16.0,2,1.0,0.5
12,1.0,AB,0.773,16.0,0,1.0,0.5
12,1.0,CD,0.952,17.0,1,1.0,0.5
12,1.0,EF,1.261,17.0,2,0.0,0.5
12,1.0,AB,0.941,17.0,0,1.0,0.5
12,1.0,EF,1.315,18.0,2,1.0,0.5
12,1.0,CD,0.769,18.0,1,1.0,0.5
12,1.0,AB,1.317,18.0,0,1.0,0.5
12,1.0,EF,1.195,19.0,2,1.0,0.5
12,1.0,AB,0.79,19.0,0,0.0,0.5
12,1.0,CD,1.042,19.0,1,0.0,0.5
12,1.0,EF,1.091,20.0,2,1.0,0.5
12,1.0,CD,0.73,20.0,1,1.0,0.5
12,1.0,AB,0.992,20.0,0,1.0,0.5
12,1.0,EF,0.959,21.0,2,1.0,0.5
12,1.0,AB,1.779,21.0,0,1.0,0.5
12,1.0,CD,1.128,21.0,1,1.0,0.5
12,1.0,AB,1.253,22.0,0,1.0,0.5
12,1.0,CD,0.99,22.0,1,0.0,0.5
12,1.0,EF,1.001,22.0,2,1.0,0.5
12,1.0,EF,1.372,23.0,2,1.0,0.5
12,1.0,CD,1.52,23.0,1,0.0,0.5
12,1.0,AB,0.798,23.0,0,1.0,0.5
12,1.0,EF,1.617,24.0,2,1.0,0.5
12,1.0,AB,1.036,24.0,0,0.0,0.5
12,1.0,CD,1.324,24.0,1,1.0,0.5
12,1.0,AB,0.915,25.0,0,1.0,0.5
12,1.0,EF,1.082,25.0,2,1.0,0.5
12,0.0,CD,1.369,25.0,1,0.0,0.5
12,1.0,CD,1.301,26.0,1,1.0,0.5
12,1.0,EF,0.956,26.0,2,0.0,0.5
12,1.0,AB,1.201,26.0,0,1.0,0.5
12,1.0,AB,0.955,27.0,0,0.0,0.5
12,1.0,EF,1.352,27.0,2,0.0,0.5
12,1.0,CD,1.372,27.0,1,0.0,0.5
12,1.0,EF,1.305,28.0,2,1.0,0.5
12,1.0,CD,1.031,28.0,1,1.0,0.5
12,1.0,AB,1.001,28.0,0,1.0,0.5
12,1.0,AB,0.787,29.0,0,1.0,0.5
12,1.0,CD,1.159,29.0,1,0.0,0.5
12,1.0,EF,1.396,29.0,2,1.0,0.5
12,1.0,EF,0.919,30.0,2,0.0,0.5
12,1.0,AB,1.15,30.0,0,1.0,0.5
12,0.0,CD,1.026,30.0,1,0.0,0.5
12,1.0,CD,1.852,31.0,1,1.0,0.5
12,1.0,EF,1.229,31.0,2,1.0,0.5
12,1.0,AB,0.687,31.0,0,1.0,0.5
12,1.0,AB,1.486,32.0,0,1.0,0.5
12,0.0,CD,2.118,32.0,1,0.0,0.5
12,1.0,EF,1.659,32.0,2,1.0,0.5
12,1.0,EF,0.965,33.0,2,1.0,0.5
12,1.0,AB,1.353,33.0,0,1.0,0.5
12,0.0,CD,1.254,33.0,1,0.0,0.5
12,1.0,EF,1.518,34.0,2,1.0,0.5
12,1.0,AB,0.725,34.0,0,1.0,0.5
12,1.0,CD,1.834,34.0,1,0.0,0.5
12,1.0,CD,2.7,35.0,1,0.0,0.5
12,1.0,EF,1.307,35.0,2,1.0,0.5
12,1.0,AB,1.114,35.0,0,1.0,0.5
12,1.0,EF,1.408,36.0,2,0.0,0.5
12,0.0,AB,0.915,36.0,0,0.0,0.5
12,0.0,CD,1.473,36.0,1,0.0,0.5
12,1.0,EF,1.441,37.0,2,1.0,0.5
12,0.0,CD,2.066,37.0,1,1.0,0.5
12,1.0,AB,0.851,37.0,0,1.0,0.5
12,1.0,EF,1.115,38.0,2,1.0,0.5
12,1.0,AB,0.818,38.0,0,1.0,0.5
12,0.0,CD,1.187,38.0,1,1.0,0.5
12,1.0,AB,0.631,39.0,0,1.0,0.5
12,1.0,EF,1.368,39.0,2,1.0,0.5
12,0.0,CD,0.669,39.0,1,0.0,0.5
12,0.0,CD,1.645,40.0,1,0.0,0.5
12,1.0,EF,0.998,40.0,2,1.0,0.5
12,1.0,AB,0.754,40.0,0,1.0,0.5
12,0.0,CD,3.314,41.0,1,0.0,0.5
12,1.0,AB,0.713,41.0,0,1.0,0.5
12,1.0,EF,1.008,41.0,2,1.0,0.5
12,1.0,AB,0.547,42.0,0,1.0,0.5
12,1.0,EF,1.128,42.0,2,0.0,0.5
12,0.0,CD,1.606,42.0,1,0.0,0.5
12,0.0,EF,1.272,43.0,2,0.0,0.5
12,0.0,CD,1.377,43.0,1,0.0,0.5
12,1.0,AB,0.965,43.0,0,1.0,0.5
12,1.0,CD,1.402,44.0,1,1.0,0.5
12,1.0,EF,1.428,44.0,2,1.0,0.5
12,1.0,AB,0.662,44.0,0,1.0,0.5
12,0.0,CD,1.358,45.0,1,1.0,0.5
12,1.0,AB,0.724,45.0,0,1.0,0.5
12,1.0,EF,1.289,45.0,2,1.0,0.5
12,0.0,CD,1.281,46.0,1,1.0,0.5
12,1.0,AB,0.68,46.0,0,1.0,0.5
12,1.0,EF,0.761,46.0,2,1.0,0.5
12,0.0,CD,1.038,47.0,1,0.0,0.5
12,1.0,AB,0.759,47.0,0,1.0,0.5
12,1.0,EF,2.172,47.0,2,1.0,0.5
12,1.0,EF,0.799,48.0,2,0.0,0.5
12,1.0,AB,0.778,48.0,0,1.0,0.5
12,0.0,CD,1.286,48.0,1,0.0,0.5
12,0.0,EF,1.414,49.0,2,1.0,0.5
12,0.0,CD,1.432,49.0,1,0.0,0.5
12,1.0,AB,0.498,49.0,0,1.0,0.5
12,1.0,AB,0.521,50.0,0,0.0,0.5
12,0.0,CD,2.263,50.0,1,0.0,0.5
12,0.0,EF,1.063,50.0,2,0.0,0.5
12,0.0,CD,1.36,51.0,1,0.0,0.5
12,1.0,EF,1.589,51.0,2,1.0,0.5
12,1.0,AB,0.64,51.0,0,0.0,0.5
12,1.0,CD,1.21,52.0,1,1.0,0.5
12,1.0,AB,0.708,52.0,0,1.0,0.5
12,1.0,EF,0.891,52.0,2,0.0,0.5
12,1.0,AB,1.85,53.0,0,0.0,0.5
12,1.0,EF,1.435,53.0,2,1.0,0.5
12,0.0,CD,1.108,53.0,1,1.0,0.5
12,1.0,AB,0.587,54.0,0,1.0,0.5
12,1.0,CD,1.406,54.0,1,1.0,0.5
12,1.0,EF,1.153,54.0,2,1.0,0.5
12,1.0,EF,0.662,55.0,2,1.0,0.5
12,1.0,AB,0.743,55.0,0,1.0,0.5
12,0.0,CD,1.756,55.0,1,1.0,0.5
12,1.0,EF,1.081,56.0,2,1.0,0.5
12,1.0,AB,0.833,56.0,0,1.0,0.5
12,1.0,CD,1.578,56.0,1,0.0,0.5
12,1.0,EF,0.854,57.0,2,0.0,0.5
12,1.0,AB,0.654,57.0,0,1.0,0.5
12,1.0,CD,2.247,57.0,1,1.0,0.5
12,1.0,EF,1.025,58.0,2,1.0,0.5
12,0.0,CD,2.403,58.0,1,0.0,0.5
12,1.0,AB,1.022,58.0,0,1.0,0.5
12,1.0,CD,1.664,59.0,1,1.0,0.5
12,1.0,AB,0.832,59.0,0,1.0,0.5
12,1.0,EF,1.138,59.0,2,1.0,0.5
12,1.0,AB,0.599,60.0,0,0.0,0.5
12,1.0,CD,1.522,60.0,1,0.0,0.5
12,1.0,EF,0.911,60.0,2,1.0,0.5
12,1.0,AB,0.627,61.0,0,1.0,0.5
12,0.0,CD,1.293,61.0,1,0.0,0.5
12,1.0,EF,1.117,61.0,2,0.0,0.5
12,1.0,EF,0.667,62.0,2,1.0,0.5
12,1.0,AB,1.002,62.0,0,1.0,0.5
12,0.0,CD,4.069,62.0,1,0.0,0.5
12,0.0,CD,1.23,63.0,1,0.0,0.5
12,1.0,EF,0.719,63.0,2,1.0,0.5
12,1.0,AB,0.542,63.0,0,0.0,0.5
12,1.0,AB,0.627,64.0,0,1.0,0.5
12,1.0,CD,2.709,64.0,1,1.0,0.5
12,1.0,EF,1.107,64.0,2,0.0,0.5
12,1.0,AB,0.739,65.0,0,1.0,0.5
12,1.0,EF,0.68,65.0,2,1.0,0.5
12,1.0,CD,1.312,65.0,1,1.0,0.5
12,1.0,EF,0.767,66.0,2,1.0,0.5
12,1.0,AB,0.706,66.0,0,1.0,0.5
12,1.0,CD,0.969,66.0,1,1.0,0.5
12,1.0,AB,0.573,67.0,0,1.0,0.5
12,1.0,CD,0.921,67.0,1,1.0,0.5
12,1.0,EF,1.015,67.0,2,0.0,0.5
12,1.0,AB,0.609,68.0,0,1.0,0.5
12,0.0,EF,1.844,68.0,2,0.0,0.5
12,0.0,CD,1.613,68.0,1,1.0,0.5
12,1.0,AB,0.912,69.0,0,1.0,0.5
12,0.0,CD,1.062,69.0,1,1.0,0.5
12,1.0,EF,1.503,69.0,2,0.0,0.5
12,1.0,AB,1.149,70.0,0,1.0,0.5
12,0.0,CD,1.811,70.0,1,0.0,0.5
12,1.0,EF,1.157,70.0,2,1.0,0.5
12,1.0,AB,0.562,71.0,0,1.0,0.5
12,0.0,EF,1.174,71.0,2,0.0,0.5
12,1.0,CD,1.619,71.0,1,1.0,0.5
12,1.0,EF,0.853,72.0,2,1.0,0.5
12,1.0,AB,0.661,72.0,0,0.0,0.5
12,1.0,CD,0.902,72.0,1,1.0,0.5
12,1.0,EF,0.724,73.0,2,1.0,0.5
12,1.0,AB,0.507,73.0,0,0.0,0.5
12,1.0,CD,1.289,73.0,1,1.0,0.5
12,0.0,EF,1.457,74.0,2,0.0,0.5
12,1.0,AB,0.865,74.0,0,1.0,0.5
12,0.0,CD,1.177,74.0,1,0.0,0.5
12,0.0,CD,1.181,75.0,1,1.0,0.5
12,1.0,AB,0.729,75.0,0,1.0,0.5
12,0.0,EF,1.352,75.0,2,1.0,0.5
12,1.0,AB,0.788,76.0,0,1.0,0.5
12,1.0,EF,1.671,76.0,2,1.0,0.5
12,1.0,CD,1.727,76.0,1,1.0,0.5
12,1.0,CD,1.558,77.0,1,1.0,0.5
12,1.0,AB,0.474,77.0,0,1.0,0.5
12,0.0,EF,1.482,77.0,2,0.0,0.5
12,1.0,CD,1.609,78.0,1,1.0,0.5
12,1.0,EF,2.125,78.0,2,1.0,0.5
12,1.0,AB,0.786,78.0,0,1.0,0.5
12,1.0,AB,0.582,79.0,0,1.0,0.5
12,1.0,CD,1.737,79.0,1,0.0,0.5
12,1.0,EF,1.295,79.0,2,1.0,0.5
12,1.0,AB,0.654,80.0,0,1.0,0.5
12,1.0,EF,1.095,80.0,2,1.0,0.5
12,1.0,CD,1.101,80.0,1,1.0,0.5
17,0.0,AB,0.893,1.0,0,0.0,0.5
17,1.0,EF,0.86,1.0,2,1.0,0.5
17,1.0,CD,1.013,1.0,1,1.0,0.5
17,1.0,EF,0.911,2.0,2,1.0,0.5
17,0.0,CD,1.238,2.0,1,0.0,0.5
17,1.0,AB,0.848,2.0,0,1.0,0.5
17,1.0,CD,1.064,3.0,1,0.0,0.5
17,1.0,AB,0.897,3.0,0,0.0,0.5
17,1.0,EF,0.896,3.0,2,1.0,0.5
17,1.0,AB,0.744,4.0,0,1.0,0.5
17,0.0,CD,0.813,4.0,1,0.0,0.5
17,1.0,EF,0.8,4.0,2,1.0,0.5
17,1.0,AB,0.763,5.0,0,1.0,0.5
17,1.0,EF,1.087,5.0,2,1.0,0.5
17,0.0,CD,0.839,5.0,1,1.0,0.5
17,1.0,AB,0.967,6.0,0,0.0,0.5
17,0.0,CD,0.9,6.0,1,0.0,0.5
17,1.0,EF,0.802,6.0,2,1.0,0.5
17,1.0,AB,0.725,7.0,0,1.0,0.5
17,1.0,CD,0.883,7.0,1,1.0,0.5
17,1.0,EF,0.786,7.0,2,0.0,0.5
17,1.0,EF,0.718,8.0,2,1.0,0.5
17,1.0,CD,0.979,8.0,1,1.0,0.5
17,1.0,AB,0.911,8.0,0,1.0,0.5
17,1.0,AB,0.965,9.0,0,1.0,0.5
17,1.0,EF,0.954,9.0,2,0.0,0.5
17,0.0,CD,1.166,9.0,1,0.0,0.5
17,1.0,EF,0.794,10.0,2,0.0,0.5
17,1.0,AB,1.15,10.0,0,1.0,0.5
17,0.0,CD,1.002,10.0,1,1.0,0.5
17,1.0,AB,0.853,11.0,0,1.0,0.5
17,0.0,CD,1.221,11.0,1,0.0,0.5
17,1.0,EF,0.744,11.0,2,0.0,0.5
17,0.0,CD,1.013,12.0,1,0.0,0.5
17,1.0,AB,0.816,12.0,0,1.0,0.5
17,1.0,EF,0.65,12.0,2,0.0,0.5
17,1.0,CD,1.242,13.0,1,1.0,0.5
17,1.0,EF,0.652,13.0,2,1.0,0.5
17,1.0,AB,0.644,13.0,0,1.0,0.5
17,0.0,CD,0.814,14.0,1,0.0,0.5
17,1.0,EF,0.656,14.0,2,1.0,0.5
17,1.0,AB,0.697,14.0,0,0.0,0.5
17,1.0,AB,0.944,15.0,0,0.0,0.5
17,1.0,CD,0.917,15.0,1,0.0,0.5
17,1.0,EF,0.604,15.0,2,0.0,0.5
17,1.0,EF,0.702,16.0,2,1.0,0.5
17,1.0,AB,0.933,16.0,0,1.0,0.5
17,1.0,CD,1.009,16.0,1,1.0,0.5
17,1.0,EF,0.876,17.0,2,1.0,0.5
17,1.0,AB,0.805,17.0,0,1.0,0.5
17,0.0,CD,0.767,17.0,1,0.0,0.5
17,1.0,EF,0.779,18.0,2,0.0,0.5
17,1.0,AB,0.775,18.0,0,0.0,0.5
17,1.0,CD,1.027,18.0,1,1.0,0.5
17,1.0,AB,0.764,19.0,0,1.0,0.5
17,0.0,CD,1.217,19.0,1,0.0,0.5
17,1.0,EF,0.763,19.0,2,0.0,0.5
17,0.0,EF,1.151,20.0,2,0.0,0.5
17,1.0,AB,0.852,20.0,0,1.0,0.5
17,1.0,CD,0.997,20.0,1,0.0,0.5
17,1.0,AB,0.934,21.0,0,1.0,0.5
17,1.0,EF,0.923,21.0,2,0.0,0.5
17,1.0,CD,1.089,21.0,1,1.0,0.5
17,1.0,CD,0.944,22.0,1,1.0,0.5
17,1.0,EF,1.83,22.0,2,1.0,0.5
17,1.0,AB,1.064,22.0,0,1.0,0.5
17,1.0,CD,0.937,23.0,1,1.0,0.5
17,1.0,EF,0.877,23.0,2,1.0,0.5
17,1.0,AB,0.782,23.0,0,1.0,0.5
17,1.0,CD,0.874,24.0,1,1.0,0.5
17,1.0,AB,0.673,24.0,0,0.0,0.5
17,1.0,EF,1.137,24.0,2,1.0,0.5
17,1.0,AB,0.694,25.0,0,1.0,0.5
17,1.0,CD,0.718,25.0,1,1.0,0.5
17,1.0,EF,0.755,25.0,2,1.0,0.5
17,1.0,AB,0.656,26.0,0,1.0,0.5
17,1.0,CD,0.857,26.0,1,1.0,0.5
17,0.0,EF,0.809,26.0,2,0.0,0.5
17,1.0,CD,0.908,27.0,1,1.0,0.5
17,1.0,AB,1.034,27.0,0,1.0,0.5
17,1.0,EF,1.132,27.0,2,1.0,0.5
17,1.0,AB,0.721,28.0,0,1.0,0.5
17,1.0,EF,0.935,28.0,2,1.0,0.5
17,1.0,CD,1.133,28.0,1,0.0,0.5
17,1.0,CD,1.258,29.0,1,0.0,0.5
17,1.0,EF,1.059,29.0,2,0.0,0.5
17,1.0,AB,0.611,29.0,0,1.0,0.5
17,1.0,EF,0.758,30.0,2,0.0,0.5
17,1.0,CD,0.978,30.0,1,0.0,0.5
17,1.0,AB,0.839,30.0,0,1.0,0.5
17,1.0,EF,0.624,31.0,2,1.0,0.5
17,1.0,AB,0.93,31.0,0,1.0,0.5
17,1.0,CD,0.976,31.0,1,0.0,0.5
17,1.0,EF,0.771,32.0,2,1.0,0.5
17,1.0,AB,0.688,32.0,0,1.0,0.5
17,0.0,CD,0.647,32.0,1,0.0,0.5
17,1.0,AB,0.544,33.0,0,1.0,0.5
17,1.0,EF,0.638,33.0,2,1.0,0.5
17,1.0,CD,0.678,33.0,1,1.0,0.5
17,1.0,EF,0.607,34.0,2,1.0,0.5
17,1.0,CD,0.705,34.0,1,1.0,0.5
17,0.0,AB,0.512,34.0,0,0.0,0.5
17,1.0,AB,0.847,35.0,0,1.0,0.5
17,1.0,EF,0.703,35.0,2,1.0,0.5
17,1.0,CD,0.638,35.0,1,1.0,0.5
17,1.0,EF,0.791,36.0,2,0.0,0.5
17,1.0,AB,1.491,36.0,0,1.0,0.5
17,1.0,CD,0.922,36.0,1,0.0,0.5
17,1.0,EF,0.736,37.0,2,1.0,0.5
17,1.0,CD,0.734,37.0,1,1.0,0.5
17,1.0,AB,0.675,37.0,0,1.0,0.5
17,0.0,AB,0.659,38.0,0,0.0,0.5
17,1.0,EF,0.867,38.0,2,1.0,0.5
17,0.0,CD,0.683,38.0,1,0.0,0.5
17,1.0,EF,0.619,39.0,2,0.0,0.5
17,1.0,AB,0.556,39.0,0,1.0,0.5
17,1.0,CD,0.849,39.0,1,1.0,0.5
17,1.0,EF,0.537,40.0,2,1.0,0.5
17,1.0,AB,0.759,40.0,0,1.0,0.5
17,1.0,CD,0.971,40.0,1,0.0,0.5
18,1.0,AB,1.392,1.0,0,0.0,0.5
18,0.0,CD,3.146,1.0,1,1.0,0.5
18,0.0,EF,2.104,1.0,2,0.0,0.5
18,1.0,EF,0.719,2.0,2,1.0,0.5
18,1.0,AB,0.565,2.0,0,1.0,0.5
18,1.0,CD,0.53,2.0,1,1.0,0.5
18,0.0,AB,0.463,3.0,0,0.0,0.5
18,0.0,CD,1.088,3.0,1,0.0,0.5
18,0.0,EF,0.983,3.0,2,0.0,0.5
18,0.0,AB,1.603,4.0,0,0.0,0.5
18,0.0,EF,2.173,4.0,2,0.0,0.5
18,0.0,CD,1.146,4.0,1,0.0,0.5
18,1.0,AB,2.895,5.0,0,1.0,0.5
18,1.0,EF,0.839,5.0,2,0.0,0.5
18,1.0,CD,2.744,5.0,1,1.0,0.5
18,0.0,EF,3.101,6.0,2,1.0,0.5
18,1.0,AB,3.069,6.0,0,1.0,0.5
18,1.0,CD,1.205,6.0,1,0.0,0.5
18,0.0,EF,1.36,7.0,2,0.0,0.5
18,1.0,AB,2.156,7.0,0,1.0,0.5
18,1.0,CD,1.089,7.0,1,1.0,0.5
18,0.0,AB,0.617,8.0,0,0.0,0.5
18,1.0,CD,1.043,8.0,1,1.0,0.5
18,0.0,EF,1.348,8.0,2,0.0,0.5
18,0.0,EF,2.514,9.0,2,1.0,0.5
18,1.0,AB,3.736,9.0,0,1.0,0.5
18,1.0,CD,0.91,9.0,1,0.0,0.5
18,1.0,CD,0.709,10.0,1,1.0,0.5
18,1.0,AB,1.419,10.0,0,1.0,0.5
18,1.0,EF,2.877,10.0,2,1.0,0.5
18,1.0,CD,0.805,11.0,1,1.0,0.5
18,1.0,AB,0.832,11.0,0,1.0,0.5
18,0.0,EF,1.121,11.0,2,0.0,0.5
18,1.0,AB,1.056,12.0,0,1.0,0.5
18,1.0,EF,0.649,12.0,2,0.0,0.5
18,1.0,CD,0.809,12.0,1,1.0,0.5
18,1.0,CD,0.676,13.0,1,1.0,0.5
18,0.0,EF,0.907,13.0,2,1.0,0.5
18,1.0,AB,0.81,13.0,0,1.0,0.5
18,1.0,AB,0.724,14.0,0,1.0,0.5
18,1.0,CD,1.251,14.0,1,1.0,0.5
18,0.0,EF,1.404,14.0,2,0.0,0.5
18,1.0,AB,0.806,15.0,0,1.0,0.5
18,1.0,CD,0.697,15.0,1,1.0,0.5
18,0.0,EF,1.224,15.0,2,0.0,0.5
18,1.0,EF,1.898,16.0,2,0.0,0.5
18,1.0,AB,1.313,16.0,0,1.0,0.5
18,1.0,CD,0.872,16.0,1,1.0,0.5
18,1.0,CD,1.135,17.0,1,1.0,0.5
18,1.0,AB,0.845,17.0,0,1.0,0.5
18,0.0,EF,1.454,17.0,2,0.0,0.5
18,1.0,CD,0.863,18.0,1,1.0,0.5
18,1.0,EF,0.84,18.0,2,1.0,0.5
18,1.0,AB,0.777,18.0,0,1.0,0.5
18,1.0,AB,0.629,19.0,0,1.0,0.5
18,1.0,CD,0.718,19.0,1,0.0,0.5
18,0.0,EF,1.845,19.0,2,0.0,0.5
18,1.0,EF,1.294,20.0,2,1.0,0.5
18,1.0,AB,0.726,20.0,0,1.0,0.5
18,1.0,CD,0.771,20.0,1,1.0,0.5
18,1.0,EF,1.012,21.0,2,0.0,0.5
18,1.0,CD,0.742,21.0,1,1.0,0.5
18,1.0,AB,0.716,21.0,0,1.0,0.5
18,1.0,CD,0.729,22.0,1,1.0,0.5
18,1.0,AB,1.183,22.0,0,0.0,0.5
18,1.0,EF,0.842,22.0,2,1.0,0.5
18,1.0,CD,0.748,23.0,1,1.0,0.5
18,1.0,AB,0.561,23.0,0,1.0,0.5
18,1.0,EF,2.933,23.0,2,1.0,0.5
18,1.0,CD,0.676,24.0,1,1.0,0.5
18,1.0,AB,0.747,24.0,0,1.0,0.5
18,1.0,EF,1.393,24.0,2,1.0,0.5
18,1.0,EF,1.308,25.0,2,1.0,0.5
18,1.0,AB,0.587,25.0,0,1.0,0.5
18,1.0,CD,0.766,25.0,1,1.0,0.5
18,1.0,CD,0.746,26.0,1,0.0,0.5
18,1.0,EF,2.007,26.0,2,0.0,0.5
18,1.0,AB,2.082,26.0,0,1.0,0.5
18,1.0,AB,1.201,27.0,0,0.0,0.5
18,1.0,EF,0.86,27.0,2,1.0,0.5
18,1.0,CD,1.436,27.0,1,0.0,0.5
18,1.0,AB,0.814,28.0,0,1.0,0.5
18,1.0,EF,0.873,28.0,2,1.0,0.5
18,1.0,CD,0.849,28.0,1,1.0,0.5
18,1.0,AB,0.89,29.0,0,1.0,0.5
18,1.0,EF,1.897,29.0,2,1.0,0.5
18,1.0,CD,0.745,29.0,1,1.0,0.5
18,1.0,AB,0.725,30.0,0,1.0,0.5
18,1.0,CD,1.3,30.0,1,0.0,0.5
18,1.0,EF,1.354,30.0,2,1.0,0.5
18,1.0,AB,0.714,31.0,0,1.0,0.5
18,1.0,CD,0.725,31.0,1,1.0,0.5
18,1.0,EF,1.315,31.0,2,1.0,0.5
18,1.0,CD,0.57,32.0,1,0.0,0.5
18,1.0,AB,0.653,32.0,0,1.0,0.5
18,1.0,EF,0.638,32.0,2,1.0,0.5
18,1.0,EF,0.775,33.0,2,0.0,0.5
18,1.0,CD,0.643,33.0,1,0.0,0.5
18,1.0,AB,0.797,33.0,0,1.0,0.5
18,1.0,EF,0.648,34.0,2,1.0,0.5
18,1.0,CD,0.633,34.0,1,1.0,0.5
18,1.0,AB,0.866,34.0,0,1.0,0.5
18,1.0,AB,0.562,35.0,0,1.0,0.5
18,1.0,EF,0.695,35.0,2,0.0,0.5
18,0.0,CD,0.694,35.0,1,0.0,0.5
18,1.0,EF,0.614,36.0,2,0.0,0.5
18,1.0,CD,1.44,36.0,1,1.0,0.5
18,1.0,AB,0.682,36.0,0,0.0,0.5
18,1.0,CD,0.681,37.0,1,1.0,0.5
18,0.0,EF,1.465,37.0,2,0.0,0.5
18,1.0,AB,0.666,37.0,0,1.0,0.5
18,1.0,CD,1.425,38.0,1,1.0,0.5
18,1.0,EF,1.052,38.0,2,1.0,0.5
18,1.0,AB,0.58,38.0,0,0.0,0.5
18,0.0,CD,1.384,39.0,1,0.0,0.5
18,1.0,EF,1.091,39.0,2,1.0,0.5
18,0.0,AB,1.219,39.0,0,0.0,0.5
18,1.0,AB,0.596,40.0,0,1.0,0.5
18,1.0,EF,0.864,40.0,2,1.0,0.5
18,1.0,CD,0.745,40.0,1,1.0,0.5
19,0.0,EF,3.031,1.0,2,0.0,0.5
19,0.0,AB,2.408,1.0,0,0.0,0.5
19,0.0,CD,2.244,1.0,1,0.0,0.5
19,1.0,CD,1.917,2.0,1,1.0,0.5
19,0.0,EF,1.86,2.0,2,1.0,0.5
19,0.0,AB,2.284,2.0,0,1.0,0.5
19,0.0,EF,2.379,3.0,2,0.0,0.5
19,1.0,AB,1.264,3.0,0,0.0,0.5
19,0.0,CD,2.096,3.0,1,1.0,0.5
19,0.0,AB,1.728,4.0,0,1.0,0.5
19,1.0,EF,2.182,4.0,2,0.0,0.5
19,1.0,CD,1.706,4.0,1,0.0,0.5
19,1.0,CD,2.088,5.0,1,1.0,0.5
19,0.0,AB,1.775,5.0,0,0.0,0.5
19,0.0,EF,4.404,5.0,2,1.0,0.5
19,0.0,EF,1.159,6.0,2,0.0,0.5
19,1.0,CD,1.372,6.0,1,1.0,0.5
19,1.0,AB,1.96,6.0,0,1.0,0.5
19,0.0,EF,1.741,7.0,2,1.0,0.5
19,1.0,AB,1.786,7.0,0,1.0,0.5
19,1.0,CD,1.35,7.0,1,1.0,0.5
19,0.0,AB,1.795,8.0,0,0.0,0.5
19,1.0,EF,1.574,8.0,2,1.0,0.5
19,1.0,CD,1.138,8.0,1,1.0,0.5
19,1.0,EF,1.264,9.0,2,1.0,0.5
19,1.0,CD,0.904,9.0,1,1.0,0.5
19,0.0,AB,3.206,9.0,0,0.0,0.5
19,1.0,EF,0.802,10.0,2,0.0,0.5
19,1.0,CD,0.629,10.0,1,0.0,0.5
19,1.0,AB,1.006,10.0,0,1.0,0.5
19,1.0,CD,0.81,11.0,1,0.0,0.5
19,1.0,EF,1.796,11.0,2,1.0,0.5
19,1.0,AB,0.984,11.0,0,0.0,0.5
19,1.0,CD,1.194,12.0,1,1.0,0.5
19,0.0,EF,1.398,12.0,2,1.0,0.5
19,1.0,AB,1.129,12.0,0,1.0,0.5
19,1.0,CD,1.4,13.0,1,1.0,0.5
19,1.0,AB,1.65,13.0,0,0.0,0.5
19,1.0,EF,1.019,13.0,2,1.0,0.5
19,1.0,CD,1.077,14.0,1,1.0,0.5
19,0.0,EF,2.701,14.0,2,1.0,0.5
19,1.0,AB,0.988,14.0,0,1.0,0.5
19,1.0,AB,0.999,15.0,0,0.0,0.5
19,0.0,EF,4.065,15.0,2,0.0,0.5
19,1.0,CD,0.675,15.0,1,1.0,0.5
19,0.0,AB,1.29,16.0,0,1.0,0.5
19,0.0,EF,2.29,16.0,2,1.0,0.5
19,1.0,CD,0.825,16.0,1,1.0,0.5
19,1.0,CD,0.748,17.0,1,0.0,0.5
19,1.0,AB,2.12,17.0,0,0.0,0.5
19,0.0,EF,2.27,17.0,2,1.0,0.5
19,0.0,AB,1.503,18.0,0,0.0,0.5
19,1.0,CD,0.502,18.0,1,1.0,0.5
19,0.0,EF,1.22,18.0,2,1.0,0.5
19,1.0,AB,0.935,19.0,0,1.0,0.5
19,0.0,EF,1.299,19.0,2,0.0,0.5
19,1.0,CD,0.531,19.0,1,1.0,0.5
19,0.0,EF,1.8,20.0,2,0.0,0.5
19,1.0,AB,0.955,20.0,0,1.0,0.5
19,1.0,CD,0.663,20.0,1,1.0,0.5
19,0.0,AB,3.662,21.0,0,0.0,0.5
19,1.0,CD,0.656,21.0,1,1.0,0.5
19,0.0,EF,0.872,21.0,2,0.0,0.5
19,1.0,AB,1.497,22.0,0,0.0,0.5
19,1.0,CD,0.423,22.0,1,1.0,0.5
19,0.0,EF,0.69,22.0,2,1.0,0.5
19,1.0,AB,0.52,23.0,0,1.0,0.5
19,1.0,CD,0.623,23.0,1,0.0,0.5
19,0.0,EF,2.568,23.0,2,1.0,0.5
19,1.0,CD,0.749,24.0,1,0.0,0.5
19,0.0,EF,1.177,24.0,2,1.0,0.5
19,1.0,AB,0.885,24.0,0,1.0,0.5
19,1.0,CD,0.901,25.0,1,1.0,0.5
19,1.0,AB,0.931,25.0,0,1.0,0.5
19,0.0,EF,0.81,25.0,2,1.0,0.5
19,1.0,AB,0.876,26.0,0,1.0,0.5
19,1.0,CD,0.668,26.0,1,1.0,0.5
19,0.0,EF,0.732,26.0,2,0.0,0.5
19,1.0,CD,0.633,27.0,1,1.0,0.5
19,0.0,EF,0.643,27.0,2,0.0,0.5
19,1.0,AB,0.819,27.0,0,0.0,0.5
19,1.0,AB,1.03,28.0,0,1.0,0.5
19,0.0,EF,1.399,28.0,2,1.0,0.5
19,1.0,CD,0.546,28.0,1,0.0,0.5
19,1.0,AB,0.944,29.0,0,1.0,0.5
19,0.0,EF,0.997,29.0,2,0.0,0.5
19,1.0,CD,0.625,29.0,1,1.0,0.5
19,1.0,AB,1.098,30.0,0,0.0,0.5
19,0.0,EF,0.722,30.0,2,1.0,0.5
19,1.0,CD,0.711,30.0,1,1.0,0.5
19,0.0,EF,1.198,31.0,2,1.0,0.5
19,0.0,AB,0.586,31.0,0,0.0,0.5
19,1.0,CD,0.765,31.0,1,1.0,0.5
19,0.0,AB,1.322,32.0,0,0.0,0.5
19,0.0,EF,0.695,32.0,2,0.0,0.5
19,1.0,CD,0.671,32.0,1,0.0,0.5
19,1.0,AB,1.102,33.0,0,1.0,0.5
19,1.0,CD,1.157,33.0,1,1.0,0.5
19,0.0,EF,1.209,33.0,2,1.0,0.5
19,0.0,EF,1.213,34.0,2,0.0,0.5
19,1.0,AB,0.832,34.0,0,1.0,0.5
19,1.0,CD,0.729,34.0,1,1.0,0.5
19,1.0,CD,0.984,35.0,1,1.0,0.5
19,1.0,EF,1.042,35.0,2,0.0,0.5
19,1.0,AB,0.836,35.0,0,1.0,0.5
19,1.0,AB,1.381,36.0,0,1.0,0.5
19,1.0,CD,0.761,36.0,1,0.0,0.5
19,1.0,EF,1.421,36.0,2,1.0,0.5
19,1.0,EF,1.168,37.0,2,0.0,0.5
19,1.0,AB,1.291,37.0,0,1.0,0.5
19,1.0,CD,0.835,37.0,1,1.0,0.5
19,1.0,EF,0.933,38.0,2,1.0,0.5
19,1.0,CD,0.85,38.0,1,1.0,0.5
19,1.0,AB,2.035,38.0,0,1.0,0.5
19,1.0,CD,0.66,39.0,1,0.0,0.5
19,1.0,AB,0.637,39.0,0,1.0,0.5
19,1.0,EF,1.278,39.0,2,1.0,0.5
19,1.0,AB,1.342,40.0,0,1.0,0.5
19,1.0,CD,0.651,40.0,1,1.0,0.5
19,0.0,EF,2.988,40.0,2,1.0,0.5
19,1.0,AB,1.924,41.0,0,1.0,0.5
19,0.0,EF,2.993,41.0,2,1.0,0.5
19,1.0,CD,0.822,41.0,1,1.0,0.5
19,1.0,EF,2.119,42.0,2,0.0,0.5
19,1.0,AB,0.886,42.0,0,0.0,0.5
19,1.0,CD,0.941,42.0,1,1.0,0.5
19,1.0,AB,1.226,43.0,0,0.0,0.5
19,0.0,EF,0.988,43.0,2,0.0,0.5
19,1.0,CD,0.736,43.0,1,1.0,0.5
19,0.0,EF,4.556,44.0,2,0.0,0.5
19,1.0,AB,1.202,44.0,0,1.0,0.5
19,1.0,CD,0.501,44.0,1,0.0,0.5
19,1.0,CD,0.604,45.0,1,1.0,0.5
19,0.0,EF,3.054,45.0,2,0.0,0.5
19,1.0,AB,1.062,45.0,0,1.0,0.5
19,0.0,EF,1.392,46.0,2,0.0,0.5
19,1.0,CD,0.835,46.0,1,1.0,0.5
19,0.0,AB,1.3,46.0,0,0.0,0.5
19,1.0,CD,0.611,47.0,1,1.0,0.5
19,0.0,EF,2.085,47.0,2,1.0,0.5
19,1.0,AB,1.349,47.0,0,1.0,0.5
19,1.0,AB,0.946,48.0,0,1.0,0.5
19,0.0,EF,1.559,48.0,2,1.0,0.5
19,1.0,CD,0.636,48.0,1,0.0,0.5
19,0.0,EF,2.085,49.0,2,0.0,0.5
19,1.0,CD,0.708,49.0,1,0.0,0.5
19,1.0,AB,0.771,49.0,0,1.0,0.5
19,1.0,CD,0.727,50.0,1,0.0,0.5
19,1.0,EF,1.733,50.0,2,0.0,0.5
19,1.0,AB,2.474,50.0,0,1.0,0.5
19,1.0,AB,0.819,51.0,0,1.0,0.5
19,1.0,CD,0.9,51.0,1,0.0,0.5
19,0.0,EF,0.956,51.0,2,0.0,0.5
19,1.0,AB,0.825,52.0,0,1.0,0.5
19,1.0,CD,1.026,52.0,1,1.0,0.5
19,0.0,EF,2.811,52.0,2,1.0,0.5
19,1.0,EF,1.479,53.0,2,0.0,0.5
19,1.0,AB,0.752,53.0,0,0.0,0.5
19,1.0,CD,0.66,53.0,1,1.0,0.5
19,1.0,AB,0.901,54.0,0,1.0,0.5
19,1.0,CD,1.371,54.0,1,1.0,0.5
19,0.0,EF,1.423,54.0,2,0.0,0.5
19,0.0,EF,0.921,55.0,2,0.0,0.5
19,1.0,AB,1.159,55.0,0,0.0,0.5
19,1.0,CD,0.54,55.0,1,1.0,0.5
19,0.0,EF,1.289,56.0,2,0.0,0.5
19,1.0,AB,0.816,56.0,0,1.0,0.5
19,1.0,CD,0.994,56.0,1,1.0,0.5
19,0.0,EF,1.174,57.0,2,1.0,0.5
19,1.0,AB,0.802,57.0,0,1.0,0.5
19,1.0,CD,0.677,57.0,1,1.0,0.5
19,1.0,AB,0.676,58.0,0,1.0,0.5
19,1.0,EF,3.092,58.0,2,0.0,0.5
19,1.0,CD,0.74,58.0,1,1.0,0.5
19,1.0,AB,0.609,59.0,0,0.0,0.5
19,0.0,EF,0.995,59.0,2,1.0,0.5
19,1.0,CD,0.727,59.0,1,0.0,0.5
19,1.0,CD,0.726,60.0,1,0.0,0.5
19,1.0,AB,0.891,60.0,0,1.0,0.5
19,0.0,EF,1.179,60.0,2,0.0,0.5
19,0.0,EF,1.997,61.0,2,0.0,0.5
19,1.0,AB,0.825,61.0,0,1.0,0.5
19,1.0,CD,0.731,61.0,1,1.0,0.5
19,0.0,EF,1.001,62.0,2,0.0,0.5
19,1.0,AB,0.731,62.0,0,1.0,0.5
19,1.0,CD,0.674,62.0,1,1.0,0.5
19,0.0,EF,1.161,63.0,2,1.0,0.5
19,1.0,CD,0.654,63.0,1,1.0,0.5
19,1.0,AB,0.703,63.0,0,1.0,0.5
19,0.0,EF,0.957,64.0,2,0.0,0.5
19,1.0,AB,0.602,64.0,0,1.0,0.5
19,1.0,CD,1.812,64.0,1,1.0,0.5
19,1.0,CD,0.784,65.0,1,1.0,0.5
19,0.0,EF,3.186,65.0,2,0.0,0.5
19,1.0,AB,0.815,65.0,0,0.0,0.5
19,0.0,EF,3.265,66.0,2,1.0,0.5
19,1.0,AB,0.722,66.0,0,1.0,0.5
19,1.0,CD,0.799,66.0,1,0.0,0.5
19,0.0,EF,1.274,67.0,2,0.0,0.5
19,1.0,CD,1.202,67.0,1,1.0,0.5
19,1.0,AB,1.253,67.0,0,1.0,0.5
19,1.0,CD,1.029,68.0,1,0.0,0.5
19,0.0,EF,2.096,68.0,2,0.0,0.5
19,1.0,AB,1.111,68.0,0,1.0,0.5
19,1.0,CD,0.75,69.0,1,1.0,0.5
19,0.0,EF,1.61,69.0,2,0.0,0.5
19,1.0,AB,0.709,69.0,0,1.0,0.5
19,1.0,AB,0.691,70.0,0,1.0,0.5
19,1.0,CD,1.523,70.0,1,1.0,0.5
19,0.0,EF,0.92,70.0,2,0.0,0.5
19,1.0,AB,0.615,71.0,0,1.0,0.5
19,1.0,CD,0.682,71.0,1,1.0,0.5
19,1.0,EF,1.049,71.0,2,1.0,0.5
19,1.0,AB,1.01,72.0,0,1.0,0.5
19,1.0,EF,0.692,72.0,2,1.0,0.5
19,1.0,CD,0.859,72.0,1,0.0,0.5
19,1.0,AB,0.724,73.0,0,1.0,0.5
19,0.0,CD,0.529,73.0,1,1.0,0.5
19,1.0,EF,1.167,73.0,2,0.0,0.5
19,1.0,CD,1.507,74.0,1,1.0,0.5
19,1.0,EF,1.034,74.0,2,1.0,0.5
19,1.0,AB,0.675,74.0,0,1.0,0.5
19,1.0,CD,0.859,75.0,1,0.0,0.5
19,1.0,EF,2.003,75.0,2,1.0,0.5
19,1.0,AB,0.751,75.0,0,1.0,0.5
19,1.0,AB,0.883,76.0,0,1.0,0.5
19,1.0,CD,1.331,76.0,1,0.0,0.5
19,1.0,EF,1.832,76.0,2,1.0,0.5
19,1.0,CD,0.914,77.0,1,0.0,0.5
19,1.0,AB,0.745,77.0,0,1.0,0.5
19,1.0,EF,1.35,77.0,2,0.0,0.5
19,1.0,AB,0.683,78.0,0,1.0,0.5
19,1.0,CD,0.618,78.0,1,0.0,0.5
19,1.0,EF,1.7,78.0,2,1.0,0.5
19,1.0,CD,0.722,79.0,1,0.0,0.5
19,1.0,AB,0.601,79.0,0,0.0,0.5
19,1.0,EF,0.748,79.0,2,0.0,0.5
19,0.0,EF,0.912,80.0,2,0.0,0.5
19,1.0,CD,1.328,80.0,1,1.0,0.5
19,1.0,AB,0.693,80.0,0,1.0,0.5
20,0.0,AB,0.623,1.0,0,0.0,0.5
20,1.0,CD,0.601,1.0,1,0.0,0.5
20,0.0,EF,0.651,1.0,2,1.0,0.5
20,0.0,CD,0.788,2.0,1,0.0,0.5
20,0.0,EF,0.768,2.0,2,0.0,0.5
20,1.0,AB,0.859,2.0,0,1.0,0.5
20,0.0,CD,0.964,3.0,1,0.0,0.5
20,0.0,EF,1.144,3.0,2,0.0,0.5
20,1.0,AB,1.062,3.0,0,0.0,0.5
20,1.0,AB,1.038,4.0,0,1.0,0.5
20,1.0,EF,0.84,4.0,2,0.0,0.5
20,1.0,CD,1.017,4.0,1,1.0,0.5
20,1.0,CD,0.723,5.0,1,0.0,0.5
20,1.0,EF,1.033,5.0,2,0.0,0.5
20,0.0,AB,1.386,5.0,0,0.0,0.5
20,0.0,EF,1.182,6.0,2,0.0,0.5
20,0.0,CD,1.161,6.0,1,1.0,0.5
20,1.0,AB,1.134,6.0,0,1.0,0.5
20,0.0,CD,1.347,7.0,1,1.0,0.5
20,0.0,AB,1.881,7.0,0,0.0,0.5
20,0.0,EF,1.168,7.0,2,0.0,0.5
20,1.0,CD,2.245,8.0,1,1.0,0.5
20,1.0,EF,1.446,8.0,2,1.0,0.5
20,0.0,AB,1.816,8.0,0,0.0,0.5
20,0.0,CD,1.218,9.0,1,1.0,0.5
20,1.0,EF,1.284,9.0,2,1.0,0.5
20,1.0,AB,1.579,9.0,0,1.0,0.5
20,1.0,EF,1.44,10.0,2,0.0,0.5
20,0.0,CD,1.921,10.0,1,1.0,0.5
20,1.0,AB,1.271,10.0,0,1.0,0.5
20,1.0,AB,1.431,11.0,0,1.0,0.5
20,1.0,EF,0.937,11.0,2,1.0,0.5
20,0.0,CD,1.181,11.0,1,1.0,0.5
20,1.0,AB,1.762,12.0,0,1.0,0.5
20,0.0,CD,1.246,12.0,1,1.0,0.5
20,1.0,EF,1.048,12.0,2,0.0,0.5
20,1.0,AB,1.089,13.0,0,0.0,0.5
20,0.0,CD,1.473,13.0,1,1.0,0.5
20,1.0,EF,1.008,13.0,2,0.0,0.5
20,1.0,AB,1.171,14.0,0,1.0,0.5
20,1.0,EF,1.439,14.0,2,1.0,0.5
20,0.0,CD,0.921,14.0,1,0.0,0.5
20,1.0,AB,0.886,15.0,0,1.0,0.5
20,1.0,EF,1.198,15.0,2,0.0,0.5
20,0.0,CD,0.778,15.0,1,0.0,0.5
20,1.0,EF,1.389,16.0,2,1.0,0.5
20,1.0,AB,1.017,16.0,0,1.0,0.5
20,0.0,CD,0.93,16.0,1,0.0,0.5
20,1.0,AB,0.993,17.0,0,1.0,0.5
20,1.0,EF,1.284,17.0,2,1.0,0.5
20,1.0,CD,1.107,17.0,1,0.0,0.5
20,1.0,EF,1.266,18.0,2,1.0,0.5
20,0.0,CD,0.754,18.0,1,1.0,0.5
20,1.0,AB,0.926,18.0,0,1.0,0.5
20,1.0,EF,0.877,19.0,2,0.0,0.5
20,0.0,CD,0.757,19.0,1,1.0,0.5
20,1.0,AB,1.457,19.0,0,1.0,0.5
20,0.0,CD,0.754,20.0,1,0.0,0.5
20,1.0,EF,0.806,20.0,2,1.0,0.5
20,1.0,AB,1.089,20.0,0,1.0,0.5
20,0.0,CD,0.814,21.0,1,1.0,0.5
20,1.0,AB,0.777,21.0,0,1.0,0.5
20,1.0,EF,1.125,21.0,2,1.0,0.5
20,0.0,CD,0.619,22.0,1,0.0,0.5
20,1.0,EF,0.789,22.0,2,0.0,0.5
20,1.0,AB,1.032,22.0,0,1.0,0.5
20,1.0,AB,1.321,23.0,0,1.0,0.5
20,0.0,CD,0.751,23.0,1,0.0,0.5
20,1.0,EF,0.764,23.0,2,0.0,0.5
20,1.0,AB,1.208,24.0,0,1.0,0.5
20,1.0,EF,1.179,24.0,2,0.0,0.5
20,0.0,CD,0.72,24.0,1,0.0,0.5
20,0.0,CD,0.837,25.0,1,0.0,0.5
20,1.0,AB,0.799,25.0,0,0.0,0.5
20,1.0,EF,0.921,25.0,2,1.0,0.5
20,1.0,EF,0.895,26.0,2,1.0,0.5
20,1.0,AB,1.31,26.0,0,0.0,0.5
20,1.0,CD,0.757,26.0,1,1.0,0.5
20,1.0,CD,1.258,27.0,1,1.0,0.5
20,1.0,EF,1.138,27.0,2,0.0,0.5
20,1.0,AB,0.96,27.0,0,0.0,0.5
20,0.0,AB,1.964,28.0,0,0.0,0.5
20,0.0,EF,1.322,28.0,2,1.0,0.5
20,1.0,CD,1.023,28.0,1,0.0,0.5
20,1.0,CD,0.786,29.0,1,0.0,0.5
20,0.0,AB,2.308,29.0,0,0.0,0.5
20,1.0,EF,0.716,29.0,2,1.0,0.5
20,1.0,AB,1.137,30.0,0,0.0,0.5
20,1.0,EF,0.663,30.0,2,1.0,0.5
20,0.0,CD,0.975,30.0,1,1.0,0.5
20,1.0,AB,0.923,31.0,0,1.0,0.5
20,0.0,CD,1.122,31.0,1,0.0,0.5
20,1.0,EF,0.655,31.0,2,1.0,0.5
20,1.0,AB,1.136,32.0,0,1.0,0.5
20,1.0,EF,0.741,32.0,2,1.0,0.5
20,0.0,CD,0.843,32.0,1,0.0,0.5
20,1.0,AB,1.428,33.0,0,1.0,0.5
20,0.0,CD,0.846,33.0,1,0.0,0.5
20,1.0,EF,0.591,33.0,2,0.0,0.5
20,0.0,CD,0.794,34.0,1,0.0,0.5
20,1.0,AB,1.334,34.0,0,1.0,0.5
20,1.0,EF,1.099,34.0,2,1.0,0.5
20,1.0,EF,1.25,35.0,2,1.0,0.5
20,1.0,CD,1.586,35.0,1,1.0,0.5
20,1.0,AB,0.934,35.0,0,1.0,0.5
20,1.0,AB,0.947,36.0,0,1.0,0.5
20,1.0,CD,1.073,36.0,1,1.0,0.5
20,1.0,EF,0.736,36.0,2,1.0,0.5
20,1.0,AB,1.358,37.0,0,1.0,0.5
20,1.0,CD,1.426,37.0,1,1.0,0.5
20,1.0,EF,0.669,37.0,2,1.0,0.5
20,1.0,AB,0.933,38.0,0,0.0,0.5
20,1.0,CD,0.874,38.0,1,1.0,0.5
20,1.0,EF,1.146,38.0,2,1.0,0.5
20,1.0,AB,1.151,39.0,0,1.0,0.5
20,1.0,EF,1.132,39.0,2,1.0,0.5
20,1.0,CD,1.057,39.0,1,0.0,0.5
20,1.0,AB,0.97,40.0,0,1.0,0.5
20,1.0,CD,1.062,40.0,1,1.0,0.5
20,1.0,EF,0.703,40.0,2,0.0,0.5
20,1.0,AB,1.048,41.0,0,1.0,0.5
20,1.0,CD,0.489,41.0,1,1.0,0.5
20,1.0,EF,0.64,41.0,2,0.0,0.5
20,1.0,CD,0.962,42.0,1,1.0,0.5
20,1.0,AB,0.982,42.0,0,1.0,0.5
20,1.0,EF,0.698,42.0,2,1.0,0.5
20,1.0,AB,1.433,43.0,0,1.0,0.5
20,1.0,EF,0.986,43.0,2,1.0,0.5
20,1.0,CD,1.269,43.0,1,0.0,0.5
20,1.0,CD,1.23,44.0,1,1.0,0.5
20,1.0,EF,0.735,44.0,2,0.0,0.5
20,1.0,AB,0.797,44.0,0,1.0,0.5
20,1.0,CD,0.937,45.0,1,0.0,0.5
20,1.0,AB,0.909,45.0,0,1.0,0.5
20,1.0,EF,0.732,45.0,2,1.0,0.5
20,1.0,EF,0.593,46.0,2,0.0,0.5
20,1.0,CD,1.389,46.0,1,1.0,0.5
20,1.0,AB,0.712,46.0,0,1.0,0.5
20,1.0,EF,0.679,47.0,2,1.0,0.5
20,1.0,AB,1.239,47.0,0,1.0,0.5
20,1.0,CD,1.296,47.0,1,1.0,0.5
20,1.0,EF,0.608,48.0,2,1.0,0.5
20,1.0,CD,0.922,48.0,1,1.0,0.5
20,1.0,AB,0.76,48.0,0,0.0,0.5
20,1.0,EF,0.684,49.0,2,0.0,0.5
20,1.0,AB,0.828,49.0,0,1.0,0.5
20,1.0,CD,1.253,49.0,1,1.0,0.5
20,1.0,EF,1.166,50.0,2,1.0,0.5
20,1.0,AB,0.699,50.0,0,0.0,0.5
20,1.0,CD,0.769,50.0,1,1.0,0.5
20,1.0,AB,1.269,51.0,0,1.0,0.5
20,1.0,CD,0.941,51.0,1,1.0,0.5
20,1.0,EF,0.779,51.0,2,1.0,0.5
20,1.0,CD,2.238,52.0,1,1.0,0.5
20,1.0,AB,1.104,52.0,0,1.0,0.5
20,1.0,EF,0.766,52.0,2,0.0,0.5
20,1.0,CD,0.875,53.0,1,1.0,0.5
20,1.0,AB,0.699,53.0,0,1.0,0.5
20,1.0,EF,1.009,53.0,2,1.0,0.5
20,1.0,EF,0.692,54.0,2,0.0,0.5
20,1.0,AB,0.707,54.0,0,1.0,0.5
20,1.0,CD,1.05,54.0,1,1.0,0.5
20,1.0,EF,0.706,55.0,2,1.0,0.5
20,1.0,CD,1.265,55.0,1,0.0,0.5
20,1.0,AB,0.808,55.0,0,1.0,0.5
20,1.0,AB,0.74,56.0,0,1.0,0.5
20,1.0,CD,1.057,56.0,1,1.0,0.5
20,1.0,EF,0.721,56.0,2,0.0,0.5
20,1.0,AB,1.16,57.0,0,0.0,0.5
20,1.0,CD,0.74,57.0,1,0.0,0.5
20,1.0,EF,0.61,57.0,2,1.0,0.5
20,1.0,EF,0.596,58.0,2,1.0,0.5
20,1.0,AB,0.583,58.0,0,1.0,0.5
20,1.0,CD,0.883,58.0,1,1.0,0.5
20,1.0,CD,1.05,59.0,1,0.0,0.5
20,1.0,EF,0.667,59.0,2,1.0,0.5
20,1.0,AB,0.738,59.0,0,1.0,0.5
20,1.0,CD,0.84,60.0,1,1.0,0.5
20,1.0,AB,1.121,60.0,0,1.0,0.5
20,1.0,EF,0.831,60.0,2,0.0,0.5
22,1.0,AB,1.317,1.0,0,0.0,0.5
22,1.0,EF,0.978,1.0,2,1.0,0.5
22,0.0,CD,1.093,1.0,1,1.0,0.5
22,1.0,EF,0.957,2.0,2,0.0,0.5
22,0.0,AB,1.297,2.0,0,0.0,0.5
22,0.0,CD,0.993,2.0,1,0.0,0.5
22,0.0,EF,1.268,3.0,2,1.0,0.5
22,0.0,AB,1.388,3.0,0,0.0,0.5
22,1.0,CD,1.063,3.0,1,0.0,0.5
22,1.0,AB,1.392,4.0,0,1.0,0.5
22,0.0,CD,0.971,4.0,1,1.0,0.5
22,1.0,EF,1.064,4.0,2,1.0,0.5
22,1.0,AB,1.113,5.0,0,0.0,0.5
22,0.0,EF,0.999,5.0,2,0.0,0.5
22,1.0,CD,1.074,5.0,1,1.0,0.5
22,1.0,AB,1.058,6.0,0,0.0,0.5
22,0.0,EF,0.923,6.0,2,0.0,0.5
22,1.0,CD,0.832,6.0,1,0.0,0.5
22,0.0,AB,1.058,7.0,0,1.0,0.5
22,1.0,CD,1.13,7.0,1,0.0,0.5
22,0.0,EF,1.056,7.0,2,0.0,0.5
22,1.0,EF,0.906,8.0,2,0.0,0.5
22,0.0,AB,1.648,8.0,0,0.0,0.5
22,1.0,CD,0.93,8.0,1,1.0,0.5
22,0.0,AB,0.727,9.0,0,0.0,0.5
22,1.0,EF,1.069,9.0,2,0.0,0.5
22,0.0,CD,1.701,9.0,1,0.0,0.5
22,0.0,AB,0.788,10.0,0,0.0,0.5
22,1.0,CD,1.367,10.0,1,1.0,0.5
22,1.0,EF,2.707,10.0,2,0.0,0.5
22,0.0,AB,1.01,11.0,0,0.0,0.5
22,1.0,EF,1.469,11.0,2,0.0,0.5
22,0.0,CD,1.101,11.0,1,1.0,0.5
22,1.0,EF,0.956,12.0,2,0.0,0.5
22,1.0,CD,1.016,12.0,1,0.0,0.5
22,0.0,AB,1.162,12.0,0,0.0,0.5
22,0.0,CD,0.903,13.0,1,0.0,0.5
22,1.0,AB,0.774,13.0,0,1.0,0.5
22,1.0,EF,0.89,13.0,2,0.0,0.5
22,1.0,EF,0.977,14.0,2,0.0,0.5
22,0.0,AB,2.045,14.0,0,0.0,0.5
22,0.0,CD,1.926,14.0,1,0.0,0.5
22,1.0,AB,0.981,15.0,0,1.0,0.5
22,0.0,CD,1.024,15.0,1,0.0,0.5
22,0.0,EF,1.715,15.0,2,0.0,0.5
22,1.0,EF,0.857,16.0,2,0.0,0.5
22,0.0,AB,0.986,16.0,0,1.0,0.5
22,0.0,CD,3.429,16.0,1,0.0,0.5
22,1.0,CD,1.256,17.0,1,1.0,0.5
22,0.0,AB,1.2,17.0,0,0.0,0.5
22,1.0,EF,1.244,17.0,2,1.0,0.5
22,1.0,CD,1.06,18.0,1,1.0,0.5
22,0.0,AB,1.029,18.0,0,0.0,0.5
22,1.0,EF,0.895,18.0,2,1.0,0.5
22,1.0,EF,0.727,19.0,2,0.0,0.5
22,0.0,AB,1.172,19.0,0,0.0,0.5
22,1.0,CD,0.688,19.0,1,0.0,0.5
22,1.0,EF,0.504,20.0,2,1.0,0.5
22,0.0,AB,0.59,20.0,0,0.0,0.5
22,1.0,CD,0.586,20.0,1,1.0,0.5
22,1.0,EF,0.535,21.0,2,0.0,0.5
22,0.0,AB,0.733,21.0,0,0.0,0.5
22,1.0,CD,0.514,21.0,1,0.0,0.5
22,1.0,EF,0.441,22.0,2,1.0,0.5
22,0.0,AB,0.577,22.0,0,0.0,0.5
22,1.0,CD,0.662,22.0,1,1.0,0.5
22,1.0,EF,0.479,23.0,2,0.0,0.5
22,1.0,CD,0.862,23.0,1,1.0,0.5
22,0.0,AB,0.743,23.0,0,0.0,0.5
22,1.0,CD,0.788,24.0,1,1.0,0.5
22,1.0,EF,0.463,24.0,2,1.0,0.5
22,0.0,AB,0.456,24.0,0,0.0,0.5
22,0.0,AB,0.496,25.0,0,0.0,0.5
22,1.0,CD,0.536,25.0,1,1.0,0.5
22,1.0,EF,0.612,25.0,2,0.0,0.5
22,1.0,EF,0.927,26.0,2,1.0,0.5
22,0.0,AB,0.566,26.0,0,0.0,0.5
22,1.0,CD,0.681,26.0,1,1.0,0.5
22,1.0,EF,0.601,27.0,2,0.0,0.5
22,1.0,CD,0.547,27.0,1,1.0,0.5
22,0.0,AB,0.529,27.0,0,0.0,0.5
22,0.0,AB,0.831,28.0,0,0.0,0.5
22,1.0,CD,0.545,28.0,1,0.0,0.5
22,1.0,EF,0.502,28.0,2,1.0,0.5
22,1.0,CD,0.884,29.0,1,1.0,0.5
22,1.0,EF,0.396,29.0,2,1.0,0.5
22,0.0,AB,0.488,29.0,0,0.0,0.5
22,0.0,AB,0.582,30.0,0,0.0,0.5
22,1.0,EF,0.57,30.0,2,1.0,0.5
22,1.0,CD,0.526,30.0,1,1.0,0.5
22,1.0,EF,0.444,31.0,2,1.0,0.5
22,1.0,CD,0.573,31.0,1,1.0,0.5
22,0.0,AB,0.488,31.0,0,0.0,0.5
22,0.0,AB,0.488,32.0,0,0.0,0.5
22,1.0,CD,0.488,32.0,1,1.0,0.5
22,1.0,EF,0.478,32.0,2,0.0,0.5
22,1.0,EF,0.407,33.0,2,1.0,0.5
22,0.0,AB,0.441,33.0,0,1.0,0.5
22,1.0,CD,0.594,33.0,1,0.0,0.5
22,0.0,AB,0.758,34.0,0,0.0,0.5
22,1.0,EF,0.41,34.0,2,0.0,0.5
22,1.0,CD,0.621,34.0,1,1.0,0.5
22,1.0,EF,0.463,35.0,2,1.0,0.5
22,0.0,AB,0.959,35.0,0,0.0,0.5
22,1.0,CD,0.516,35.0,1,1.0,0.5
22,0.0,AB,0.601,36.0,0,1.0,0.5
22,1.0,EF,0.46,36.0,2,1.0,0.5
22,1.0,CD,0.461,36.0,1,0.0,0.5
22,1.0,EF,0.485,37.0,2,0.0,0.5
22,0.0,AB,0.461,37.0,0,1.0,0.5
22,1.0,CD,0.509,37.0,1,1.0,0.5
22,1.0,CD,0.492,38.0,1,0.0,0.5
22,1.0,EF,0.467,38.0,2,1.0,0.5
22,0.0,AB,0.49,38.0,0,0.0,0.5
22,0.0,AB,0.458,39.0,0,1.0,0.5
22,1.0,CD,0.427,39.0,1,1.0,0.5
22,1.0,EF,0.468,39.0,2,1.0,0.5
22,1.0,CD,0.613,40.0,1,1.0,0.5
22,0.0,AB,0.439,40.0,0,0.0,0.5
22,1.0,EF,0.576,40.0,2,1.0,0.5
22,1.0,EF,0.44,41.0,2,1.0,0.5
22,0.0,AB,0.425,41.0,0,0.0,0.5
22,1.0,CD,0.531,41.0,1,0.0,0.5
22,0.0,AB,0.513,42.0,0,0.0,0.5
22,1.0,EF,0.463,42.0,2,1.0,0.5
22,1.0,CD,0.536,42.0,1,0.0,0.5
22,0.0,AB,0.525,43.0,0,1.0,0.5
22,1.0,CD,0.499,43.0,1,1.0,0.5
22,1.0,EF,0.426,43.0,2,0.0,0.5
22,0.0,AB,0.531,44.0,0,1.0,0.5
22,1.0,CD,0.577,44.0,1,0.0,0.5
22,1.0,EF,0.47,44.0,2,0.0,0.5
22,1.0,EF,0.453,45.0,2,1.0,0.5
22,0.0,AB,0.43,45.0,0,0.0,0.5
22,1.0,CD,0.432,45.0,1,1.0,0.5
22,1.0,CD,0.521,46.0,1,1.0,0.5
22,1.0,EF,0.447,46.0,2,1.0,0.5
22,0.0,AB,0.52,46.0,0,0.0,0.5
22,0.0,AB,0.478,47.0,0,0.0,0.5
22,1.0,CD,0.534,47.0,1,1.0,0.5
22,1.0,EF,0.459,47.0,2,1.0,0.5
22,1.0,CD,0.492,48.0,1,1.0,0.5
22,1.0,EF,0.395,48.0,2,1.0,0.5
22,0.0,AB,0.454,48.0,0,0.0,0.5
22,1.0,EF,0.455,49.0,2,0.0,0.5
22,0.0,AB,0.623,49.0,0,0.0,0.5
22,1.0,CD,0.489,49.0,1,1.0,0.5
22,1.0,EF,0.817,50.0,2,0.0,0.5
22,0.0,AB,0.482,50.0,0,0.0,0.5
22,1.0,CD,0.986,50.0,1,0.0,0.5
22,1.0,CD,0.5,51.0,1,1.0,0.5
22,1.0,EF,0.491,51.0,2,1.0,0.5
22,0.0,AB,0.419,51.0,0,1.0,0.5
22,1.0,CD,0.516,52.0,1,1.0,0.5
22,0.0,AB,0.531,52.0,0,0.0,0.5
22,1.0,EF,0.448,52.0,2,1.0,0.5
22,1.0,EF,0.513,53.0,2,1.0,0.5
22,0.0,AB,0.472,53.0,0,0.0,0.5
22,1.0,CD,0.551,53.0,1,0.0,0.5
22,1.0,EF,0.492,54.0,2,1.0,0.5
22,0.0,AB,0.452,54.0,0,0.0,0.5
22,1.0,CD,0.54,54.0,1,1.0,0.5
22,1.0,EF,0.441,55.0,2,0.0,0.5
22,0.0,AB,0.37,55.0,0,1.0,0.5
22,1.0,CD,0.382,55.0,1,0.0,0.5
22,1.0,CD,0.49,56.0,1,0.0,0.5
22,1.0,EF,0.464,56.0,2,0.0,0.5
22,0.0,AB,0.457,56.0,0,0.0,0.5
22,1.0,EF,0.49,57.0,2,1.0,0.5
22,0.0,AB,0.401,57.0,0,0.0,0.5
22,1.0,CD,0.572,57.0,1,1.0,0.5
22,0.0,AB,0.471,58.0,0,0.0,0.5
22,1.0,CD,1.095,58.0,1,0.0,0.5
22,1.0,EF,0.503,58.0,2,1.0,0.5
22,0.0,AB,0.509,59.0,0,0.0,0.5
22,1.0,EF,0.716,59.0,2,1.0,0.5
22,1.0,CD,0.521,59.0,1,1.0,0.5
22,0.0,AB,0.575,60.0,0,0.0,0.5
22,1.0,CD,0.476,60.0,1,1.0,0.5
22,1.0,EF,0.475,60.0,2,0.0,0.5
22,1.0,CD,0.511,61.0,1,0.0,0.5
22,0.0,AB,0.462,61.0,0,0.0,0.5
22,1.0,EF,0.495,61.0,2,0.0,0.5
22,1.0,EF,0.397,62.0,2,1.0,0.5
22,0.0,AB,0.489,62.0,0,0.0,0.5
22,1.0,CD,0.456,62.0,1,0.0,0.5
22,1.0,EF,0.465,63.0,2,1.0,0.5
22,0.0,AB,0.513,63.0,0,0.0,0.5
22,1.0,CD,0.559,63.0,1,1.0,0.5
22,0.0,AB,0.38,64.0,0,0.0,0.5
22,1.0,EF,0.568,64.0,2,1.0,0.5
22,1.0,CD,0.491,64.0,1,1.0,0.5
22,0.0,AB,0.435,65.0,0,0.0,0.5
22,1.0,EF,0.451,65.0,2,0.0,0.5
22,1.0,CD,0.572,65.0,1,0.0,0.5
22,0.0,AB,0.457,66.0,0,0.0,0.5
22,1.0,EF,0.473,66.0,2,1.0,0.5
22,1.0,CD,0.521,66.0,1,1.0,0.5
22,0.0,AB,0.407,67.0,0,0.0,0.5
22,1.0,EF,0.473,67.0,2,0.0,0.5
22,1.0,CD,0.609,67.0,1,1.0,0.5
22,1.0,EF,0.395,68.0,2,1.0,0.5
22,1.0,CD,0.551,68.0,1,0.0,0.5
22,0.0,AB,0.428,68.0,0,0.0,0.5
22,1.0,EF,0.397,69.0,2,1.0,0.5
22,1.0,CD,0.793,69.0,1,1.0,0.5
22,0.0,AB,0.507,69.0,0,0.0,0.5
22,1.0,CD,0.434,70.0,1,1.0,0.5
22,0.0,AB,0.532,70.0,0,0.0,0.5
22,1.0,EF,0.457,70.0,2,1.0,0.5
22,1.0,CD,0.45,71.0,1,1.0,0.5
22,1.0,EF,0.427,71.0,2,0.0,0.5
22,0.0,AB,0.436,71.0,0,1.0,0.5
22,1.0,CD,0.501,72.0,1,0.0,0.5
22,0.0,AB,0.507,72.0,0,0.0,0.5
22,1.0,EF,0.482,72.0,2,0.0,0.5
22,1.0,CD,0.498,73.0,1,1.0,0.5
22,0.0,AB,0.449,73.0,0,0.0,0.5
22,1.0,EF,0.513,73.0,2,1.0,0.5
22,1.0,CD,0.671,74.0,1,0.0,0.5
22,0.0,AB,0.568,74.0,0,0.0,0.5
22,1.0,EF,0.404,74.0,2,0.0,0.5
22,1.0,CD,0.318,75.0,1,1.0,0.5
22,0.0,AB,0.396,75.0,0,1.0,0.5
22,1.0,EF,1.008,75.0,2,0.0,0.5
22,1.0,EF,0.874,76.0,2,0.0,0.5
22,0.0,AB,0.89,76.0,0,0.0,0.5
22,1.0,CD,0.841,76.0,1,1.0,0.5
22,1.0,CD,0.859,77.0,1,1.0,0.5
22,1.0,EF,0.611,77.0,2,0.0,0.5
22,0.0,AB,0.622,77.0,0,1.0,0.5
22,1.0,EF,0.824,78.0,2,1.0,0.5
22,1.0,CD,0.817,78.0,1,0.0,0.5
22,0.0,AB,1.204,78.0,0,1.0,0.5
22,0.0,AB,0.59,79.0,0,0.0,0.5
22,1.0,EF,0.818,79.0,2,1.0,0.5
22,1.0,CD,0.723,79.0,1,1.0,0.5
22,1.0,EF,0.681,80.0,2,1.0,0.5
22,0.0,AB,0.458,80.0,0,0.0,0.5
22,1.0,CD,0.466,80.0,1,0.0,0.5
22,0.0,AB,0.393,81.0,0,0.0,0.5
22,1.0,EF,0.5,81.0,2,1.0,0.5
22,1.0,CD,0.395,81.0,1,0.0,0.5
22,0.0,AB,0.422,82.0,0,1.0,0.5
22,1.0,EF,0.408,82.0,2,1.0,0.5
22,1.0,CD,0.466,82.0,1,1.0,0.5
22,0.0,AB,0.402,83.0,0,0.0,0.5
22,1.0,CD,0.597,83.0,1,1.0,0.5
22,1.0,EF,0.504,83.0,2,0.0,0.5
22,1.0,CD,0.59,84.0,1,0.0,0.5
22,0.0,AB,1.546,84.0,0,1.0,0.5
22,1.0,EF,0.863,84.0,2,1.0,0.5
22,1.0,EF,0.56,85.0,2,1.0,0.5
22,0.0,AB,0.453,85.0,0,0.0,0.5
22,1.0,CD,0.589,85.0,1,1.0,0.5
22,1.0,EF,0.544,86.0,2,1.0,0.5
22,0.0,AB,0.637,86.0,0,0.0,0.5
22,1.0,CD,0.575,86.0,1,1.0,0.5
22,1.0,EF,0.411,87.0,2,1.0,0.5
22,0.0,AB,0.469,87.0,0,0.0,0.5
22,1.0,CD,0.333,87.0,1,1.0,0.5
22,1.0,CD,0.379,88.0,1,1.0,0.5
22,0.0,AB,0.47,88.0,0,1.0,0.5
22,1.0,EF,0.47,88.0,2,0.0,0.5
22,1.0,CD,0.55,89.0,1,0.0,0.5
22,0.0,AB,0.659,89.0,0,1.0,0.5
22,1.0,EF,0.516,89.0,2,1.0,0.5
22,0.0,AB,0.577,90.0,0,0.0,0.5
22,1.0,CD,0.533,90.0,1,0.0,0.5
22,1.0,EF,0.443,90.0,2,1.0,0.5
22,1.0,EF,0.483,91.0,2,1.0,0.5
22,0.0,AB,0.467,91.0,0,1.0,0.5
22,1.0,CD,0.546,91.0,1,0.0,0.5
22,0.0,AB,0.472,92.0,0,0.0,0.5
22,1.0,CD,0.544,92.0,1,1.0,0.5
22,1.0,EF,1.533,92.0,2,1.0,0.5
22,1.0,EF,0.771,93.0,2,1.0,0.5
22,1.0,CD,0.582,93.0,1,1.0,0.5
22,0.0,AB,0.722,93.0,0,0.0,0.5
22,0.0,AB,1.983,94.0,0,0.0,0.5
22,1.0,CD,0.523,94.0,1,1.0,0.5
22,1.0,EF,0.44,94.0,2,0.0,0.5
22,0.0,AB,0.418,95.0,0,1.0,0.5
22,1.0,CD,0.388,95.0,1,0.0,0.5
22,1.0,EF,0.663,95.0,2,1.0,0.5
22,0.0,AB,0.608,96.0,0,0.0,0.5
22,1.0,EF,0.946,96.0,2,1.0,0.5
22,1.0,CD,1.616,96.0,1,1.0,0.5
22,1.0,EF,0.778,97.0,2,1.0,0.5
22,0.0,AB,1.158,97.0,0,1.0,0.5
22,1.0,CD,0.923,97.0,1,0.0,0.5
22,1.0,EF,0.536,98.0,2,1.0,0.5
22,0.0,AB,0.526,98.0,0,1.0,0.5
22,1.0,CD,0.531,98.0,1,1.0,0.5
22,1.0,CD,0.361,99.0,1,0.0,0.5
22,0.0,AB,0.39,99.0,0,0.0,0.5
22,1.0,EF,0.552,99.0,2,0.0,0.5
22,1.0,EF,0.573,100.0,2,0.0,0.5
22,0.0,AB,0.641,100.0,0,0.0,0.5
22,1.0,CD,0.538,100.0,1,1.0,0.5
22,0.0,AB,0.549,101.0,0,0.0,0.5
22,1.0,EF,0.505,101.0,2,1.0,0.5
22,1.0,CD,0.688,101.0,1,1.0,0.5
22,1.0,CD,0.688,102.0,1,1.0,0.5
22,0.0,AB,0.574,102.0,0,0.0,0.5
22,1.0,EF,0.579,102.0,2,1.0,0.5
22,1.0,CD,0.446,103.0,1,1.0,0.5
22,0.0,AB,1.672,103.0,0,0.0,0.5
22,1.0,EF,0.584,103.0,2,0.0,0.5
22,1.0,CD,0.507,104.0,1,0.0,0.5
22,1.0,EF,1.258,104.0,2,1.0,0.5
22,1.0,AB,0.738,104.0,0,1.0,0.5
22,1.0,CD,0.616,105.0,1,1.0,0.5
22,1.0,EF,0.394,105.0,2,0.0,0.5
22,1.0,AB,0.493,105.0,0,1.0,0.5
22,1.0,EF,0.596,106.0,2,1.0,0.5
22,1.0,CD,0.439,106.0,1,0.0,0.5
22,0.0,AB,0.48,106.0,0,0.0,0.5
22,1.0,CD,0.657,107.0,1,1.0,0.5
22,1.0,AB,0.977,107.0,0,1.0,0.5
22,1.0,EF,0.645,107.0,2,0.0,0.5
22,1.0,AB,0.99,108.0,0,1.0,0.5
22,1.0,CD,0.434,108.0,1,1.0,0.5
22,1.0,EF,0.691,108.0,2,1.0,0.5
22,1.0,EF,1.538,109.0,2,1.0,0.5
22,1.0,CD,0.728,109.0,1,1.0,0.5
22,1.0,AB,0.405,109.0,0,1.0,0.5
22,1.0,AB,0.728,110.0,0,1.0,0.5
22,1.0,CD,0.557,110.0,1,1.0,0.5
22,1.0,EF,0.666,110.0,2,0.0,0.5
22,1.0,AB,0.731,111.0,0,1.0,0.5
22,1.0,CD,0.784,111.0,1,0.0,0.5
22,1.0,EF,0.612,111.0,2,0.0,0.5
22,1.0,CD,0.71,112.0,1,1.0,0.5
22,1.0,EF,0.629,112.0,2,0.0,0.5
22,1.0,AB,0.455,112.0,0,1.0,0.5
22,1.0,CD,1.007,113.0,1,1.0,0.5
22,1.0,AB,0.706,113.0,0,1.0,0.5
22,1.0,EF,0.68,113.0,2,0.0,0.5
22,1.0,EF,1.144,114.0,2,0.0,0.5
22,1.0,AB,0.693,114.0,0,0.0,0.5
22,1.0,CD,0.501,114.0,1,1.0,0.5
22,1.0,AB,0.684,115.0,0,1.0,0.5
22,1.0,CD,0.843,115.0,1,1.0,0.5
22,0.0,EF,0.572,115.0,2,1.0,0.5
22,1.0,AB,0.84,116.0,0,0.0,0.5
22,0.0,EF,0.865,116.0,2,0.0,0.5
22,1.0,CD,0.402,116.0,1,0.0,0.5
22,1.0,AB,0.748,117.0,0,1.0,0.5
22,1.0,CD,1.009,117.0,1,1.0,0.5
22,0.0,EF,0.459,117.0,2,0.0,0.5
22,1.0,AB,0.62,118.0,0,1.0,0.5
22,1.0,CD,0.719,118.0,1,1.0,0.5
22,0.0,EF,1.092,118.0,2,1.0,0.5
22,1.0,AB,0.892,119.0,0,1.0,0.5
22,0.0,EF,0.875,119.0,2,0.0,0.5
22,1.0,CD,0.539,119.0,1,1.0,0.5
22,1.0,CD,0.64,120.0,1,1.0,0.5
22,1.0,AB,0.666,120.0,0,1.0,0.5
22,0.0,EF,0.874,120.0,2,1.0,0.5
23,0.0,EF,1.048,1.0,2,1.0,0.5
23,1.0,CD,0.737,1.0,1,1.0,0.5
23,0.0,AB,0.781,1.0,0,0.0,0.5
23,0.0,AB,1.025,2.0,0,0.0,0.5
23,0.0,EF,0.804,2.0,2,1.0,0.5
23,0.0,CD,0.598,2.0,1,0.0,0.5
23,1.0,CD,0.897,3.0,1,0.0,0.5
23,1.0,AB,0.848,3.0,0,0.0,0.5
23,0.0,EF,0.85,3.0,2,1.0,0.5
23,0.0,AB,1.178,4.0,0,0.0,0.5
23,0.0,EF,1.022,4.0,2,0.0,0.5
23,1.0,CD,0.601,4.0,1,1.0,0.5
23,0.0,AB,1.307,5.0,0,0.0,0.5
23,0.0,EF,0.698,5.0,2,0.0,0.5
23,1.0,CD,0.961,5.0,1,1.0,0.5
23,1.0,AB,1.142,6.0,0,1.0,0.5
23,0.0,EF,0.787,6.0,2,1.0,0.5
23,1.0,CD,1.334,6.0,1,1.0,0.5
23,1.0,AB,1.043,7.0,0,1.0,0.5
23,1.0,CD,0.733,7.0,1,1.0,0.5
23,0.0,EF,1.002,7.0,2,0.0,0.5
23,1.0,AB,0.917,8.0,0,1.0,0.5
23,1.0,CD,0.899,8.0,1,1.0,0.5
23,0.0,EF,1.145,8.0,2,0.0,0.5
23,1.0,CD,1.407,9.0,1,1.0,0.5
23,1.0,EF,0.681,9.0,2,0.0,0.5
23,1.0,AB,1.121,9.0,0,1.0,0.5
23,1.0,AB,0.79,10.0,0,1.0,0.5
23,1.0,CD,0.794,10.0,1,1.0,0.5
23,1.0,EF,1.23,10.0,2,1.0,0.5
23,1.0,EF,0.767,11.0,2,1.0,0.5
23,1.0,CD,0.972,11.0,1,0.0,0.5
23,1.0,AB,2.535,11.0,0,1.0,0.5
23,1.0,AB,2.388,12.0,0,1.0,0.5
23,1.0,EF,1.472,12.0,2,0.0,0.5
23,1.0,CD,0.729,12.0,1,1.0,0.5
23,0.0,EF,1.486,13.0,2,1.0,0.5
23,1.0,AB,1.622,13.0,0,1.0,0.5
23,1.0,CD,0.712,13.0,1,1.0,0.5
23,0.0,EF,1.431,14.0,2,1.0,0.5
23,1.0,CD,1.104,14.0,1,0.0,0.5
23,1.0,AB,1.128,14.0,0,1.0,0.5
23,1.0,AB,1.221,15.0,0,1.0,0.5
23,0.0,EF,1.552,15.0,2,0.0,0.5
23,1.0,CD,0.78,15.0,1,0.0,0.5
23,1.0,CD,0.712,16.0,1,0.0,0.5
23,1.0,AB,2.294,16.0,0,1.0,0.5
23,0.0,EF,1.598,16.0,2,0.0,0.5
23,1.0,AB,1.641,17.0,0,1.0,0.5
23,1.0,CD,2.491,17.0,1,0.0,0.5
23,1.0,EF,1.458,17.0,2,1.0,0.5
23,0.0,AB,0.923,18.0,0,0.0,0.5
23,1.0,EF,1.425,18.0,2,1.0,0.5
23,0.0,CD,1.275,18.0,1,0.0,0.5
23,1.0,AB,1.891,19.0,0,1.0,0.5
23,1.0,CD,2.219,19.0,1,0.0,0.5
23,1.0,EF,2.373,19.0,2,1.0,0.5
23,1.0,AB,1.488,20.0,0,0.0,0.5
23,0.0,EF,1.776,20.0,2,1.0,0.5
23,1.0,CD,0.892,20.0,1,0.0,0.5
23,1.0,CD,1.901,21.0,1,0.0,0.5
23,1.0,EF,0.995,21.0,2,0.0,0.5
23,1.0,AB,2.031,21.0,0,1.0,0.5
23,0.0,CD,0.64,22.0,1,0.0,0.5
23,0.0,EF,1.298,22.0,2,0.0,0.5
23,1.0,AB,1.889,22.0,0,1.0,0.5
23,1.0,AB,1.193,23.0,0,1.0,0.5
23,0.0,CD,0.772,23.0,1,0.0,0.5
23,0.0,EF,1.552,23.0,2,1.0,0.5
23,1.0,EF,1.052,24.0,2,1.0,0.5
23,1.0,CD,1.566,24.0,1,1.0,0.5
23,0.0,AB,1.289,24.0,0,0.0,0.5
23,1.0,AB,0.881,25.0,0,1.0,0.5
23,0.0,CD,1.417,25.0,1,0.0,0.5
23,1.0,EF,0.963,25.0,2,0.0,0.5
23,1.0,AB,1.119,26.0,0,1.0,0.5
23,1.0,EF,2.43,26.0,2,0.0,0.5
23,0.0,CD,2.528,26.0,1,1.0,0.5
23,0.0,CD,1.174,27.0,1,0.0,0.5
23,1.0,EF,1.122,27.0,2,0.0,0.5
23,1.0,AB,0.76,27.0,0,1.0,0.5
23,1.0,CD,3.948,28.0,1,1.0,0.5
23,1.0,EF,1.266,28.0,2,1.0,0.5
23,0.0,AB,2.45,28.0,0,0.0,0.5
23,1.0,EF,1.211,29.0,2,1.0,0.5
23,1.0,CD,3.59,29.0,1,1.0,0.5
23,1.0,AB,2.137,29.0,0,1.0,0.5
23,0.0,EF,2.487,30.0,2,0.0,0.5
23,1.0,CD,1.359,30.0,1,1.0,0.5
23,1.0,AB,1.388,30.0,0,1.0,0.5
23,1.0,AB,2.471,31.0,0,1.0,0.5
23,1.0,EF,1.535,31.0,2,1.0,0.5
23,1.0,CD,1.845,31.0,1,1.0,0.5
23,1.0,CD,1.438,32.0,1,0.0,0.5
23,0.0,EF,0.775,32.0,2,0.0,0.5
23,0.0,AB,0.316,32.0,0,0.0,0.5
23,1.0,CD,0.577,33.0,1,1.0,0.5
23,1.0,EF,0.773,33.0,2,0.0,0.5
23,1.0,AB,1.313,33.0,0,1.0,0.5
23,0.0,EF,1.928,34.0,2,1.0,0.5
23,1.0,AB,1.086,34.0,0,0.0,0.5
23,1.0,CD,0.669,34.0,1,1.0,0.5
23,1.0,EF,1.653,35.0,2,1.0,0.5
23,0.0,AB,1.694,35.0,0,0.0,0.5
23,1.0,CD,2.125,35.0,1,1.0,0.5
23,1.0,EF,1.268,36.0,2,1.0,0.5
23,1.0,CD,1.187,36.0,1,1.0,0.5
23,1.0,AB,1.815,36.0,0,1.0,0.5
23,1.0,CD,1.777,37.0,1,0.0,0.5
23,1.0,AB,1.926,37.0,0,1.0,0.5
23,1.0,EF,0.883,37.0,2,0.0,0.5
23,1.0,CD,0.763,38.0,1,0.0,0.5
23,0.0,EF,0.288,38.0,2,0.0,0.5
23,1.0,AB,0.839,38.0,0,0.0,0.5
23,1.0,AB,0.744,39.0,0,0.0,0.5
23,1.0,EF,0.765,39.0,2,0.0,0.5
23,0.0,CD,1.345,39.0,1,0.0,0.5
23,1.0,EF,0.902,40.0,2,0.0,0.5
23,1.0,AB,0.733,40.0,0,0.0,0.5
23,1.0,CD,0.898,40.0,1,1.0,0.5
24,1.0,AB,1.273,1.0,0,1.0,0.5
24,1.0,CD,0.968,1.0,1,0.0,0.5
24,0.0,EF,0.931,1.0,2,0.0,0.5
24,0.0,CD,1.057,2.0,1,1.0,0.5
24,1.0,AB,0.626,2.0,0,1.0,0.5
24,0.0,EF,0.82,2.0,2,1.0,0.5
24,0.0,CD,0.694,3.0,1,0.0,0.5
24,0.0,EF,1.077,3.0,2,1.0,0.5
24,1.0,AB,0.909,3.0,0,1.0,0.5
24,1.0,AB,0.755,4.0,0,1.0,0.5
24,0.0,CD,0.76,4.0,1,1.0,0.5
24,1.0,EF,0.933,4.0,2,0.0,0.5
24,0.0,EF,0.826,5.0,2,0.0,0.5
24,0.0,CD,0.836,5.0,1,0.0,0.5
24,1.0,AB,0.829,5.0,0,1.0,0.5
24,1.0,AB,0.591,6.0,0,1.0,0.5
24,0.0,EF,0.954,6.0,2,1.0,0.5
24,1.0,CD,1.023,6.0,1,1.0,0.5
24,1.0,CD,0.978,7.0,1,0.0,0.5
24,0.0,EF,1.069,7.0,2,1.0,0.5
24,1.0,AB,0.621,7.0,0,1.0,0.5
24,0.0,EF,1.143,8.0,2,1.0,0.5
24,0.0,CD,1.333,8.0,1,0.0,0.5
24,1.0,AB,0.585,8.0,0,1.0,0.5
24,1.0,CD,0.797,9.0,1,0.0,0.5
24,0.0,EF,1.049,9.0,2,0.0,0.5
24,1.0,AB,0.513,9.0,0,1.0,0.5
24,1.0,AB,0.552,10.0,0,1.0,0.5
24,0.0,EF,0.844,10.0,2,0.0,0.5
24,0.0,CD,0.918,10.0,1,0.0,0.5
24,0.0,CD,1.155,11.0,1,1.0,0.5
24,0.0,EF,0.968,11.0,2,1.0,0.5
24,1.0,AB,0.661,11.0,0,1.0,0.5
24,1.0,AB,0.621,12.0,0,1.0,0.5
24,0.0,CD,1.039,12.0,1,0.0,0.5
24,0.0,EF,0.952,12.0,2,0.0,0.5
24,0.0,EF,0.805,13.0,2,0.0,0.5
24,0.0,CD,1.471,13.0,1,0.0,0.5
24,1.0,AB,0.695,13.0,0,1.0,0.5
24,1.0,AB,0.519,14.0,0,1.0,0.5
24,1.0,EF,1.204,14.0,2,0.0,0.5
24,1.0,CD,1.207,14.0,1,1.0,0.5
24,1.0,CD,0.89,15.0,1,0.0,0.5
24,1.0,AB,0.601,15.0,0,1.0,0.5
24,0.0,EF,1.275,15.0,2,1.0,0.5
24,1.0,AB,0.548,16.0,0,1.0,0.5
24,0.0,EF,0.978,16.0,2,1.0,0.5
24,0.0,CD,1.021,16.0,1,1.0,0.5
24,1.0,AB,0.983,17.0,0,0.0,0.5
24,0.0,EF,1.154,17.0,2,0.0,0.5
24,1.0,CD,0.863,17.0,1,1.0,0.5
24,1.0,AB,0.655,18.0,0,0.0,0.5
24,0.0,EF,1.44,18.0,2,1.0,0.5
24,1.0,CD,1.265,18.0,1,0.0,0.5
24,0.0,CD,1.154,19.0,1,1.0,0.5
24,1.0,AB,0.694,19.0,0,1.0,0.5
24,0.0,EF,1.19,19.0,2,1.0,0.5
24,1.0,CD,1.193,20.0,1,0.0,0.5
24,0.0,AB,1.228,20.0,0,1.0,0.5
24,0.0,EF,0.991,20.0,2,1.0,0.5
24,1.0,AB,0.895,21.0,0,1.0,0.5
24,1.0,CD,0.726,21.0,1,1.0,0.5
24,0.0,EF,0.716,21.0,2,1.0,0.5
24,0.0,AB,0.753,22.0,0,1.0,0.5
24,0.0,CD,0.895,22.0,1,1.0,0.5
24,1.0,EF,1.197,22.0,2,1.0,0.5
24,0.0,AB,1.313,23.0,0,0.0,0.5
24,0.0,EF,1.559,23.0,2,0.0,0.5
24,1.0,CD,0.861,23.0,1,1.0,0.5
24,1.0,CD,0.79,24.0,1,1.0,0.5
24,0.0,EF,0.832,24.0,2,1.0,0.5
24,0.0,AB,0.93,24.0,0,0.0,0.5
24,0.0,EF,1.247,25.0,2,0.0,0.5
24,1.0,AB,1.057,25.0,0,1.0,0.5
24,1.0,CD,1.074,25.0,1,1.0,0.5
24,0.0,EF,1.362,26.0,2,0.0,0.5
24,1.0,AB,1.118,26.0,0,1.0,0.5
24,1.0,CD,1.261,26.0,1,1.0,0.5
24,1.0,AB,1.158,27.0,0,1.0,0.5
24,1.0,EF,1.49,27.0,2,1.0,0.5
24,1.0,CD,1.018,27.0,1,1.0,0.5
24,1.0,EF,1.083,28.0,2,1.0,0.5
24,1.0,CD,1.355,28.0,1,1.0,0.5
24,1.0,AB,1.071,28.0,0,1.0,0.5
24,1.0,EF,1.432,29.0,2,0.0,0.5
24,1.0,AB,0.689,29.0,0,1.0,0.5
24,1.0,CD,0.776,29.0,1,1.0,0.5
24,1.0,AB,0.764,30.0,0,1.0,0.5
24,1.0,CD,0.809,30.0,1,1.0,0.5
24,1.0,EF,1.052,30.0,2,1.0,0.5
24,1.0,AB,0.772,31.0,0,1.0,0.5
24,1.0,EF,0.856,31.0,2,1.0,0.5
24,1.0,CD,0.568,31.0,1,1.0,0.5
24,1.0,AB,0.629,32.0,0,1.0,0.5
24,1.0,CD,0.654,32.0,1,1.0,0.5
24,1.0,EF,1.223,32.0,2,1.0,0.5
24,1.0,AB,0.817,33.0,0,1.0,0.5
24,1.0,CD,0.683,33.0,1,1.0,0.5
24,1.0,EF,0.715,33.0,2,1.0,0.5
24,1.0,CD,0.713,34.0,1,0.0,0.5
24,0.0,EF,1.872,34.0,2,1.0,0.5
24,1.0,AB,0.727,34.0,0,1.0,0.5
24,1.0,EF,1.262,35.0,2,0.0,0.5
24,1.0,CD,0.735,35.0,1,1.0,0.5
24,1.0,AB,0.804,35.0,0,1.0,0.5
24,1.0,CD,1.831,36.0,1,1.0,0.5
24,1.0,AB,0.824,36.0,0,1.0,0.5
24,1.0,EF,1.459,36.0,2,1.0,0.5
24,1.0,AB,0.683,37.0,0,1.0,0.5
24,1.0,CD,1.651,37.0,1,1.0,0.5
24,1.0,EF,1.691,37.0,2,1.0,0.5
24,0.0,EF,1.843,38.0,2,0.0,0.5
24,1.0,CD,0.86,38.0,1,0.0,0.5
24,1.0,AB,0.693,38.0,0,0.0,0.5
24,1.0,CD,0.772,39.0,1,0.0,0.5
24,0.0,EF,1.144,39.0,2,0.0,0.5
24,1.0,AB,1.101,39.0,0,0.0,0.5
24,0.0,AB,1.164,40.0,0,1.0,0.5
24,0.0,CD,0.969,40.0,1,0.0,0.5
24,0.0,EF,1.349,40.0,2,1.0,0.5
26,0.0,AB,1.841,1.0,0,0.0,0.5
26,1.0,CD,1.554,1.0,1,1.0,0.5
26,0.0,EF,1.231,1.0,2,0.0,0.5
26,1.0,AB,1.385,2.0,0,0.0,0.5
26,1.0,CD,1.013,2.0,1,0.0,0.5
26,0.0,EF,1.103,2.0,2,0.0,0.5
26,0.0,CD,1.03,3.0,1,1.0,0.5
26,1.0,AB,1.448,3.0,0,1.0,0.5
26,0.0,EF,1.433,3.0,2,1.0,0.5
26,0.0,CD,0.715,4.0,1,0.0,0.5
26,1.0,EF,0.753,4.0,2,0.0,0.5
26,1.0,AB,1.23,4.0,0,1.0,0.5
26,1.0,EF,1.576,5.0,2,1.0,0.5
26,1.0,AB,1.844,5.0,0,1.0,0.5
26,0.0,CD,0.605,5.0,1,1.0,0.5
26,1.0,AB,1.248,6.0,0,1.0,0.5
26,0.0,CD,1.105,6.0,1,1.0,0.5
26,0.0,EF,2.376,6.0,2,1.0,0.5
26,1.0,AB,1.884,7.0,0,1.0,0.5
26,0.0,CD,0.852,7.0,1,0.0,0.5
26,0.0,EF,1.484,7.0,2,0.0,0.5
26,1.0,AB,0.964,8.0,0,0.0,0.5
26,1.0,CD,0.696,8.0,1,1.0,0.5
26,1.0,EF,1.455,8.0,2,1.0,0.5
26,1.0,EF,2.184,9.0,2,0.0,0.5
26,0.0,AB,1.444,9.0,0,0.0,0.5
26,0.0,CD,1.333,9.0,1,0.0,0.5
26,0.0,AB,1.723,10.0,0,0.0,0.5
26,0.0,EF,1.344,10.0,2,0.0,0.5
26,0.0,CD,1.078,10.0,1,0.0,0.5
26,1.0,EF,1.742,11.0,2,0.0,0.5
26,0.0,AB,2.372,11.0,0,0.0,0.5
26,0.0,CD,1.183,11.0,1,0.0,0.5
26,1.0,EF,1.466,12.0,2,0.0,0.5
26,1.0,CD,2.691,12.0,1,1.0,0.5
26,0.0,AB,1.098,12.0,0,0.0,0.5
26,0.0,EF,0.977,13.0,2,1.0,0.5
26,1.0,CD,0.91,13.0,1,0.0,0.5
26,1.0,AB,1.332,13.0,0,1.0,0.5
26,1.0,AB,0.738,14.0,0,1.0,0.5
26,0.0,EF,1.238,14.0,2,1.0,0.5
26,0.0,CD,0.76,14.0,1,0.0,0.5
26,1.0,CD,1.068,15.0,1,1.0,0.5
26,0.0,AB,2.885,15.0,0,0.0,0.5
26,0.0,EF,0.98,15.0,2,0.0,0.5
26,0.0,AB,1.449,16.0,0,1.0,0.5
26,1.0,CD,1.409,16.0,1,1.0,0.5
26,0.0,EF,1.828,16.0,2,1.0,0.5
26,1.0,CD,3.246,17.0,1,0.0,0.5
26,0.0,EF,0.839,17.0,2,1.0,0.5
26,0.0,AB,1.953,17.0,0,0.0,0.5
26,1.0,AB,1.069,18.0,0,1.0,0.5
26,0.0,CD,2.358,18.0,1,1.0,0.5
26,1.0,EF,1.186,18.0,2,0.0,0.5
26,0.0,AB,1.126,19.0,0,0.0,0.5
26,1.0,EF,0.5,19.0,2,0.0,0.5
26,0.0,CD,0.603,19.0,1,0.0,0.5
26,1.0,CD,0.494,20.0,1,1.0,0.5
26,0.0,AB,0.764,20.0,0,1.0,0.5
26,0.0,EF,1.521,20.0,2,1.0,0.5
26,1.0,AB,1.061,21.0,0,1.0,0.5
26,0.0,CD,1.03,21.0,1,0.0,0.5
